Heart_Rate,Body_Temperature,Blood_Oxygen,Step_Count,Activity_Status,Accel_X,Accel_Y,Accel_Z,Gyro_X,Gyro_Y,Gyro_Z,GSR_Value,HRV,Sweat_Response
178,36.6,96.0,359.0,Running,-13.840576273085858,7.363593809043533,4.156826274738781,9.270462831670942,-6.196291974267362,-4.257032171301568,18.78280771672263,20.4724367984292,6.750548424439582
153,37.4,99.0,428.0,Running,14.36335793543123,-16.360171754989445,5.123787782747897,6.105168477626765,0.2996631513316412,0.8760570945425603,13.7727630585897,59.82463376332535,5.01004465813293
130,36.6,96.0,307.0,Running,-13.962532224891875,5.591866952212962,20.994249514396262,-4.797196183617399,-6.54410199559556,-1.5676484308619896,19.06012359813377,56.30287314342488,2.6762979090818746
170,36.8,96.0,688.0,Running,-5.89672479984809,6.258206096018265,-2.522290066748782,0.7044312345560197,4.035612983186551,2.368160384057272,9.357257154562864,44.03480459578094,5.8458436572393
134,37.0,95.0,621.0,Running,-0.1322728024317524,-0.6475820267437025,3.912386601531737,1.6158385709239074,2.381788846781096,2.777563231711241,8.238085055446025,44.00151406803295,4.997089954058632
118,37.1,95.0,769.0,Running,2.046863231046604,-8.432050979782733,-12.012503497422944,2.5680005328485827,1.9620798358938352,4.879083596723545,8.281091952997782,39.94827199318651,9.864570293105038
180,37.1,97.0,418.0,Running,1.9292401115174107,-5.653540321326858,10.261563365599114,-14.361311066408248,-8.84537952444559,0.2746705549992436,1.9188915099268369,57.31340445630078,7.490078062796655
175,36.6,97.0,515.0,Running,-14.489515505600789,-24.22211610124744,-1.6917475394200323,-3.011060301808903,-4.112099661911003,12.133582431727612,16.195883924469882,65.54131476569384,8.486929034640482
173,36.8,99.0,458.0,Running,-7.054473242268145,-7.8095735036106735,8.65986738736939,2.3438712803751187,5.605153336622357,2.164799126803481,11.539053470978976,28.655376121074905,4.656830453490906
146,37.1,96.0,450.0,Running,3.246381627754927,3.865630995307309,5.327281515025438,7.463442844797608,1.312806645009625,1.6391058642154264,2.1321548497097305,66.36292505905547,2.379774711283744
168,37.3,98.0,724.0,Running,9.56034224579912,-4.125647912038577,-3.6320204544438384,-1.355618005212844,0.9679495568377218,4.621350697689149,12.482827074580651,43.05590731962113,10.35067222487092
155,36.6,98.0,565.0,Running,-11.722824915990577,-3.195030615244844,-17.049195032025377,4.420226981805248,-0.5161087646624811,1.2769187783715854,13.663917557167665,57.40482271464727,8.355237676094394
122,37.2,97.0,750.0,Running,7.962753059463141,11.77189643720666,-3.551921225750696,3.684219485462167,1.3268117469981422,-4.47673161181512,2.5220088055824426,69.44094592672094,11.14190875158522
119,37.1,97.0,630.0,Running,3.499703200815115,-4.069821556227852,-3.4227255023206022,5.743186747143576,3.006033744645574,1.945795978339644,11.7543500728686,64.94177322366693,0.149101070996231
157,37.2,97.0,402.0,Running,5.03002084451089,-8.3896214939069,-1.9242285210327872,0.4307194152318738,7.262337672353727,-0.3176228730767755,11.284132107891883,53.645070830816,6.763871951554624
114,36.6,99.0,361.0,Running,-14.342446491694764,-4.998160708776521,-0.7910224850641068,-5.048653523549688,-0.3788214326772994,-11.234446669923026,2.4665630743028912,36.64523227970192,4.169074086681878
117,37.1,98.0,598.0,Running,2.558341667362916,-9.591884414666612,-19.582366708414657,10.287477348558491,-5.3592861652007775,1.0564184613973635,3.411943861344481,58.04436364275785,0.8159105298176073
176,36.9,95.0,361.0,Running,-2.29895390707644,3.697544831839552,3.3955870638003285,-3.640014706145673,4.089448290125143,-2.4595122375310257,10.852672084648944,47.56814036780212,7.510280277968954
165,37.1,98.0,723.0,Running,1.710862565752022,-12.197616092451888,-10.32347251910183,8.123392292347804,3.191959628041915,-11.027830285495346,11.53990426236473,65.0244773781284,3.2792542405459155
140,37.1,96.0,573.0,Running,2.523993829083091,-17.43145843926193,-6.112935814818891,1.615396365580145,-1.6430923787449232,4.485330984435661,2.4584031758860223,70.90181791286648,9.081501086478708
150,37.0,98.0,783.0,Running,-0.2598359794023254,-0.5447297749224597,2.1308421571612843,-7.815954043483285,-0.8139645303614711,-5.688428352124083,13.194570819227271,55.694594725789486,0.5436815229141612
177,37.0,100.0,439.0,Running,0.5902560574220591,2.7436925379342387,8.526663760749791,4.415548885735795,0.2045958769786056,-1.00745766973759,8.804987389992624,41.65821879858829,4.389583429234648
132,36.6,96.0,479.0,Running,-13.738140415364354,13.185116452318782,-11.20144814475874,-3.34072042769497,-1.3144541460413384,7.052295726017519,8.469795460386289,53.27801063616418,1.477884338330056
159,36.8,99.0,660.0,Running,-4.934061410338753,10.723076881015295,3.2218716209741083,4.263868375611097,3.5909286285396727,-2.3974648369962166,11.39164864372406,58.22479441331748,2.4817216547676804
172,36.7,99.0,579.0,Running,-10.410576394515829,-1.5484774060740965,15.814370436774745,-3.21774916158731,3.3643061798341,0.9864613281560322,2.3819640077946995,77.83254972191395,16.144287381671663
163,37.1,95.0,779.0,Running,4.64120582022478,-4.1834344854847165,4.444636154837003,5.149804087905806,2.9590706687068904,1.5565433672144244,6.331415451520403,53.36352116802938,3.949451443725704
176,36.9,100.0,718.0,Running,-3.156202858815621,0.7185160784463581,-12.030556588342527,2.1179953279673054,7.745100757475937,4.706552903837417,5.572739780385908,44.95419581883296,14.285038002691548
147,37.4,100.0,667.0,Running,12.809998991967795,16.356410947836054,13.481926770453873,7.061102777077146,0.2544385092800903,-1.0902294769618692,8.587319023785229,52.58381579616556,3.318828468591663
135,37.1,97.0,451.0,Running,2.546851383634551,-2.4082820280422546,-1.6961038779819222,-5.311967640734398,-1.1160112731740257,-5.448165186711941,4.436946126199068,63.31255951121089,15.149246575805542
135,36.6,96.0,571.0,Running,-12.122116966605205,-26.429489100827404,-10.74349585157298,-0.935721325022744,-8.004519892382579,-1.852540492950145,7.349661569289088,50.90128991922745,8.834339881701771
155,36.6,98.0,670.0,Running,-12.94047480822591,-0.5320896918745597,-14.112498649424086,4.9286499783993145,-4.14248512390123,-7.02783509589321,14.886536569747047,55.824680081351744,7.536875000457959
114,37.1,98.0,754.0,Running,2.9104497976852235,6.8228223751715005,-8.300221213519613,12.94781821009307,-8.215944055770837,4.511385868933236,11.98883549921426,30.008339037805253,3.008626417596666
118,37.1,98.0,401.0,Running,3.395192453070362,11.040337289568024,-21.103223113316407,1.6289815829108325,8.307350828640091,7.596419618208844,16.2791457346938,38.41146876865639,0.5404779585026915
152,36.8,98.0,762.0,Running,-6.66424227146921,-2.6351091674373395,-6.261825127357122,0.97192150788668,0.1044324414798089,2.5539604426379734,17.462040487254303,55.68729678089186,1.1828947525605038
147,37.1,95.0,393.0,Running,2.8721102383270765,25.21892607184863,16.091748569336417,1.6924192173084558,-6.300823825862901,-3.289172769260685,14.148960507755152,41.045385699183896,12.016231326206633
132,36.7,95.0,445.0,Running,-9.551880368227753,-5.621887667426316,-24.49417600576102,6.585575336699327,-5.55728978468516,-5.877973028124258,19.933999867173764,45.8001004718828,9.06137802691662
136,37.3,96.0,461.0,Running,11.35423667427256,-0.3209820481167842,-13.617810174283242,-10.609274495042971,2.4911087424839256,2.986141091266924,13.833664861392084,57.72941482436701,10.264535900847848
122,36.8,98.0,579.0,Running,-8.042686719846763,-5.325562757110897,-16.12490772017754,-3.0391099354721622,5.700745192606332,-4.741740021121004,8.52401836132669,37.48577284948063,5.309646500065396
166,37.6,95.0,706.0,Running,18.58857123000869,14.739131288110348,5.526309376513124,-2.523874606141088,-6.287889294573081,-6.162616573842545,17.712428437523478,40.829221289170576,1.3237605811432438
155,36.8,97.0,472.0,Running,-7.994940792661295,-20.319224277599865,2.755675954899883,-1.8341220590734373,-0.3797551182126138,2.910132835423634,7.753347409917173,52.7962425461607,2.7953549997553315
124,37.0,98.0,762.0,Running,0.1274185404034888,-10.883643285565125,-16.59097677911478,6.085792604127482,-8.038305135590294,1.7482502364984684,12.281832006925592,40.87660238832861,4.4834182695493245
152,36.5,98.0,673.0,Running,-14.845502801921477,4.35378045256319,-9.489775657663628,-1.2945248685203867,2.9427663488535987,3.0623439700680115,14.204109267517907,71.7095854908771,8.242023049811563
151,36.6,95.0,591.0,Running,-12.208240031377484,6.036168948053785,3.1338629545968626,-6.729898401233743,-6.815870022964052,-0.6724839220086636,12.592050518688458,74.60921845232431,2.3734280189181867
138,37.2,99.0,726.0,Running,5.495688358408698,10.280290413201516,-4.208174303027479,2.445935650738317,-0.9545189586364934,5.454902125929834,1.1228227980045005,38.38077544972127,5.352683195226559
166,36.7,100.0,790.0,Running,-9.190685391168204,5.9388975231872685,0.3977985737980474,-1.2062882730927122,2.3620313894018867,5.225442370423767,1.4549790401391864,61.26649181760965,13.50257867336098
164,37.2,97.0,337.0,Running,5.035102318939646,17.196982983446773,-6.496428991999292,9.49940967447608,1.7780667439282998,0.1195152164247773,18.88801051261524,50.42686371774738,6.7762820978052165
138,37.2,100.0,358.0,Running,6.383634262796821,3.911533920650295,8.770258894055525,4.237108385752108,-2.260451664165402,-6.996530874009707,8.739944960043815,49.53194766591374,2.720156971284471
162,37.2,99.0,388.0,Running,6.725349865670233,-13.212217136635989,6.211013433134566,3.694052404437515,3.720959857499684,-5.294537935283002,16.393060709234348,50.33946279015304,4.051101464384068
164,37.2,100.0,620.0,Running,6.212406418716511,4.631455327647822,16.063344693351862,-8.08155304218294,3.6538205953326224,-2.6548544890598222,12.692994816595872,61.7538449719791,3.589499619000512
161,37.0,97.0,447.0,Running,-1.1244171263756104,-12.539854274009876,-1.9950875290031456,-0.8441086159500532,2.922064902362421,2.316442650590531,6.382403666358969,62.03192687927179,1.3165047710910107
159,37.1,100.0,363.0,Running,3.968820767417364,-13.78527874911258,-15.247777332795549,5.005230462835706,4.608250559622297,-1.0223561049306076,1.3826191300365067,46.67730105571814,17.339686712109444
176,36.7,98.0,480.0,Running,-9.083918621465214,-5.641250697130185,5.47160374271288,8.199822646856965,2.183692758667548,3.147647921109054,17.71529564359253,48.43485810519662,11.258092668694664
119,36.7,95.0,638.0,Running,-10.03899888507604,-0.9413870173015688,-9.02260121217779,-8.009829059485842,-5.3552683982452445,-3.157888645826657,18.050328631810583,52.71876743903076,12.659792427195155
118,36.7,98.0,767.0,Running,-9.61878478026992,6.093737629728525,11.888357459795998,-3.712352928490241,-5.436229694314013,-2.455768735710524,8.802970027195375,35.73633905469152,1.8636075539376729
152,37.1,97.0,303.0,Running,4.528614047780054,-15.388202254926474,1.3888257536710666,-6.600112556103529,-5.429125644425927,-1.4243774668483542,4.984115271173817,54.77781507198311,3.818854756021558
177,37.1,98.0,726.0,Running,2.75372030380332,-0.6876239722947409,-10.812992740503962,1.5958725520959025,-2.987550973458208,-2.280604137370941,11.92615089571748,44.5532500826665,2.930735313349439
142,36.8,97.0,394.0,Running,-6.102455294241819,-16.277417148456717,-21.09832781093433,6.702252230115723,7.1118493084925385,0.9071331005698569,4.929539969534529,19.88814708882485,6.996610926182949
127,37.2,100.0,349.0,Running,7.966048764621809,0.2775200860785195,2.6204446779046493,5.380035692992991,3.252250462680696,-1.798148362262312,4.774000663375514,62.89377308515334,1.340069185465441
177,37.2,96.0,546.0,Running,7.323477330207966,0.9419836140216372,-1.714605615615005,-3.542033834552314,-1.919856359761758,1.7490001228395378,15.27429956310157,33.520693622332814,7.239888035094612
120,37.0,95.0,475.0,Running,1.1498083564260635,-3.029886809992666,-8.804986221552166,-7.920679715027449,15.549592780026805,-8.881231667332258,4.473454382245292,53.32337710436316,12.602905617829109
154,37.4,97.0,409.0,Running,12.793692310112426,10.112076486792622,0.1014556744651299,-1.3426532395291615,3.3296212602723068,9.162785217396008,16.367700146341996,70.26609338619708,9.345790332763649
157,37.0,96.0,389.0,Running,0.2058376480010386,-14.558491655762326,-12.855995077031563,-4.455961127076437,2.107933053072278,4.070758810591332,17.634284357522034,63.29286782877193,1.2665842111800387
112,37.2,95.0,662.0,Running,6.683139118690646,2.617092605518737,-10.438113898138653,-10.759077006646525,4.194702502348061,2.410333636676931,6.746860031767924,49.06040634009148,10.887424325754113
180,36.6,98.0,598.0,Running,-11.899048405319776,14.24316787575347,-19.35957235026794,2.2097032478470453,3.343708277962563,8.520527581277456,10.511007031185796,27.043078853849348,3.2102868981369497
146,37.3,100.0,610.0,Running,11.349486560300663,15.479807028160982,-9.205486859423791,-5.451995387214231,-5.458504380696572,6.234458577673597,13.26877582367002,74.44463196669199,2.7577687924842245
170,36.9,98.0,439.0,Running,-4.616175395059564,1.63123164048795,9.305630527324974,0.7992819599870018,-10.766714599356222,1.0838778188131457,13.876741582825089,66.05547740344895,1.220835277940644
165,36.8,95.0,751.0,Running,-7.040753368273873,-6.249851845662897,-13.395411244471129,4.847286002633684,3.4673945595699687,-3.0393763033790893,2.019061038895786,49.161193272166805,2.189249765141719
175,37.0,96.0,721.0,Running,-1.5673975936415858,11.652362004854009,7.43972057096594,4.595770868050008,-6.829778556002672,1.1027071350693345,4.197293181646543,74.57539598406412,4.087252498460376
133,36.8,98.0,651.0,Running,-8.106863246812766,6.202731814004006,1.7969272138357253,1.3016091938561036,2.0432640574033543,0.9705381547667884,12.481946662566076,48.57763653078692,1.770787531265567
172,37.5,96.0,580.0,Running,15.020841347425264,-14.854292326972876,5.677056696090666,4.054041365798911,-6.763351429217672,2.4193832559401987,16.74547069254212,53.65295306279517,6.988402266617065
114,37.1,100.0,397.0,Running,3.9367748765696255,17.599601196336113,-9.536075620639243,-8.742659866190904,5.563441874949627,3.40679755221474,14.47838761466334,66.91670375950848,2.2833039833146085
177,37.0,100.0,753.0,Running,0.9572257657785508,6.453733872193739,-4.344166061676802,-5.454832151075991,-5.582622199743295,2.674086681729551,7.896673967673561,57.898050255084605,6.34678518640813
158,37.6,99.0,369.0,Running,21.10118808361325,-0.3246443341632115,14.417469209437364,6.551543730598041,5.586994079512304,-0.1552946643545097,1.896737332250201,45.97031370035386,15.944489544992493
160,36.7,96.0,680.0,Running,-8.229274053371606,24.76393777356149,6.643673539124837,4.824258165487288,-4.818794631053055,-11.19115616662486,18.899106170283314,64.79564758858905,13.17206218423895
122,36.6,96.0,586.0,Running,-12.938285428802294,10.453411957973708,19.731195025760908,-2.181929452632843,-7.482646275450396,3.841036083158688,9.372632785061578,54.17522951967004,1.517700123730732
112,37.5,98.0,386.0,Running,17.948295905372667,11.459096786367594,1.338046244610827,-0.5480490196291542,-3.250119672034491,1.0769825272814395,17.718377907813274,42.36179956101298,8.345745122751696
134,37.0,95.0,322.0,Running,0.051388257238195,0.2816992647612114,11.619900715697373,5.865623187933206,-2.733400422936327,-2.8491646411937936,8.887767425862169,55.93698273064621,3.424193607118412
176,37.2,97.0,756.0,Running,6.103929337005488,0.4550781719302583,-7.416591867980716,2.238584629051388,6.702305258951739,3.752895837608828,4.718540161893332,13.604118941971876,11.19767433798886
113,37.0,99.0,555.0,Running,-1.3953189532086765,7.313284947066763,14.713069789163772,-5.633837344549026,4.148662089395873,-5.6503466952017884,13.326195164005345,42.56182741984776,3.2586178959475625
148,37.3,97.0,410.0,Running,9.521395319352685,-6.861183986403898,-8.224254739922262,1.1962343205557475,-0.2173847490693121,-0.3209408855424888,1.004313726146855,41.92928362264792,4.168749917149956
160,37.4,100.0,530.0,Running,13.41258926381702,-14.927231666880994,-19.27029457588482,-4.596922957932117,2.5712737800891743,1.2612019821333869,17.03370881338765,22.109948425099137,1.3513204038153646
137,37.3,96.0,354.0,Running,10.37255997112596,15.342135486496538,-2.168285511140566,5.504798174992855,5.621766799352513,7.890590287810922,3.286907947989735,77.84971154842933,0.9015693692848092
113,37.5,100.0,786.0,Running,15.960432346598662,-10.00808160788099,-2.4371730365987614,1.2686983074728673,-0.657362978358339,-3.0199031298461474,8.121673562649956,29.398956665453763,0.4938673209359834
159,36.7,97.0,726.0,Running,-9.210821906008082,-6.780699084836196,5.746367383799914,-0.1463140684248917,-1.17203900158161,-14.955679854503616,16.24563390457516,32.308105032383295,7.8012269068489
154,36.8,97.0,357.0,Running,-5.035895789899597,-0.4467429602838785,12.13517410004963,5.630251253860841,-3.9188283279319824,-0.9344807908099242,7.483644545396691,71.52631098833353,8.76198935917847
165,36.7,99.0,404.0,Running,-10.145374759709869,4.476181547707083,3.7353521718512224,15.68874266829997,1.1970225026768853,-1.1827764360947302,19.7879702847696,26.853226580856944,10.034031880177796
122,36.8,96.0,620.0,Running,-5.643018758317864,-14.021596000756873,4.35710614855738,5.668850484335323,-1.046569097896808,1.3502867919571104,8.666138411512993,71.36743731870422,7.533475435786379
174,36.5,96.0,318.0,Running,-14.848872409545812,8.238306780089497,-1.3133682333945935,3.2795038826488048,-3.929930163174912,-6.841575194164053,7.409281568069544,64.96448115380366,9.149234571819411
154,36.7,95.0,309.0,Running,-10.59917043542107,8.598150447641581,-17.255926357411607,2.580891435574792,-0.2270560896611911,0.4668618713832562,7.272963055996484,48.480789219477,3.0932194054648567
126,37.5,95.0,743.0,Running,14.926615957242642,-9.815876096970172,15.112677535165185,1.7572410377079146,-6.282534471396282,-4.759592300111178,4.121450022175776,67.39071564950783,2.966174414488308
60,36.4535233101765,98.83048234296214,0.0,Resting,-0.044173905845146,-0.0510689890790573,9.815751295272,0.0,0.0,0.0,0.2891430216882049,46.99125139499736,0.1562954604901839
67,36.41343563954707,96.42485531035382,0.0,Resting,0.0861344511124796,-0.015739823673327,9.823657004202744,0.0,0.0,0.0,0.2353640087260094,74.98974598626265,0.1140137391442379
73,36.60474064011712,99.10350901787878,0.0,Resting,-0.0950711190727354,0.067767867353054,9.85629241775094,0.0,0.0,0.0,0.1603173739747103,69.49725765708489,0.1113251114755116
56,36.82218232805423,99.23182931243608,0.0,Resting,0.0393377975746393,0.0754240935324576,9.84065544554649,0.0,0.0,0.0,0.1376605049834212,50.113496027611575,0.1240756299011067
66,36.88665835110309,99.07105847085737,0.0,Resting,0.0450652781471756,-0.0513640039471548,9.86689165057122,0.0,0.0,0.0,0.1607470092450199,42.69138451686058,0.2161537167228843
69,36.87589126832841,96.45586354847696,0.0,Resting,0.0672757154820798,0.0101141269082728,9.711242781091975,0.0,0.0,0.0,0.118603481852535,50.71989067537512,0.2857526842410984
68,36.48774044897846,98.57563182827106,0.0,Resting,0.094887862127695,-0.0615013698728345,9.8495041273493,0.0,0.0,0.0,0.1287735932686659,76.48832947126103,0.1993486856011969
60,36.74978747476855,99.3372991829976,0.0,Resting,0.0951203838313304,-0.0796242471720887,9.87017055146442,0.0,0.0,0.0,0.1209320880692962,65.32714699583089,0.2685890964912394
72,36.45026735801938,98.30941360487869,0.0,Resting,-0.0869446484867072,0.0822241002783915,9.757227008491665,0.0,0.0,0.0,0.1845887087483115,68.84218643591487,0.1891773239719615
59,36.24872443458815,98.58562950091236,0.0,Resting,0.0643678645505805,0.0641015008464218,9.82808945479865,0.0,0.0,0.0,0.2591156752515172,50.28609404436384,0.241716709153565
72,36.761252212482354,97.83345391770524,0.0,Resting,0.0292619867314762,0.0520069803606347,9.762832412767397,0.0,0.0,0.0,0.128276710843268,68.77552622299281,0.2463745474573001
57,36.20786204205584,98.1148292795362,0.0,Resting,0.0294684268746182,-0.0902467362373719,9.891594213296491,0.0,0.0,0.0,0.1260640866344671,41.12486025111695,0.1347927411806677
57,36.52734606996679,96.1375074334069,0.0,Resting,-0.074330014677061,0.0687457585420515,9.7066847144871,0.0,0.0,0.0,0.2286857899034661,55.01285383092055,0.1722432117951623
76,36.463503415441664,98.55585208789314,0.0,Resting,0.0300374332891306,-0.0123911848189232,9.815958568766591,0.0,0.0,0.0,0.1394365963936132,65.07013394169326,0.2274604313076047
76,36.75470203081508,96.32578885156464,0.0,Resting,0.0964965161202495,-0.031520975340828,9.733300709409905,0.0,0.0,0.0,0.1195220076217983,45.84386262165281,0.1141393216368732
64,36.812996378208304,97.7400583773609,0.0,Resting,0.0823637139078894,0.0092952722050752,9.842444041035431,0.0,0.0,0.0,0.1333697156411155,72.92014297787739,0.1723080375525913
73,36.44327570877703,97.17062039066964,0.0,Resting,-0.0121738678390298,-0.0817293514552888,9.735178056683733,0.0,0.0,0.0,0.2847462791753552,49.40125195247674,0.2069598932562384
57,36.84930161155588,98.18171180084686,0.0,Resting,-0.0920104053427811,0.0513293098704797,9.747076652379672,0.0,0.0,0.0,0.2642942505552381,66.09124451273786,0.2992448986089277
66,36.43513340840395,96.53366534209285,0.0,Resting,-0.027541301999959,0.0164870153776591,9.79887416220915,0.0,0.0,0.0,0.1708129124710188,56.20788570301319,0.1949067125244881
70,36.55706108798925,98.76657360789328,0.0,Resting,0.065278062320111,-0.0626819806253665,9.882966989999376,0.0,0.0,0.0,0.2311641534654785,63.841743819105886,0.2632113514228646
71,36.781614821611306,99.18004614771388,0.0,Resting,0.0402998202930331,-0.0623535600461908,9.742342874429594,0.0,0.0,0.0,0.2074551347336076,44.29802210515633,0.1864134570133235
61,36.75433618337984,96.65341779897264,0.0,Resting,-0.0081312688812087,-0.0631502696854651,9.72884800422362,0.0,0.0,0.0,0.2354248526965127,40.67651199686429,0.2592781445239417
67,36.98989477784976,96.41725234940752,0.0,Resting,-0.0889796929682337,-0.0885995224896132,9.851795366370808,0.0,0.0,0.0,0.2365342304925518,76.38257709521204,0.2190829603240217
78,36.38012881937275,96.58206193114944,0.0,Resting,-0.0146210544353394,0.0175596898743369,9.800123906466784,0.0,0.0,0.0,0.2257468030119986,50.78520035068731,0.2773190883004797
56,36.729854330831664,99.508510247594,0.0,Resting,-0.0061950120564232,0.0680696355177016,9.882357022476354,0.0,0.0,0.0,0.1532202737074617,72.78708011121836,0.182188510470022
58,36.687745526620624,98.11275704702544,0.0,Resting,0.0857111065788271,-0.0965003572025222,9.729322911431968,0.0,0.0,0.0,0.1078012841525636,79.974012018888,0.2208608839642957
64,36.93207876359202,97.86904398403,0.0,Resting,0.0282172207164319,-0.0901990710057453,9.829185578604609,0.0,0.0,0.0,0.1911133563980217,48.45725031995645,0.2260037361237654
61,36.325089713315904,96.42684727640942,0.0,Resting,-0.0376694166690702,0.0145540553373891,9.746575829230364,0.0,0.0,0.0,0.2781947769381407,50.60682964733422,0.1834765883600946
78,36.80143853086955,98.59822402702784,0.0,Resting,0.0050636528901442,0.0638991370772104,9.731352085730329,0.0,0.0,0.0,0.2138994517037151,66.51439150538663,0.1288624087374963
71,36.654614893015015,99.47199836758035,0.0,Resting,-0.086788938435568,-0.0346522218862732,9.836685883031452,0.0,0.0,0.0,0.2664782083403816,78.61794538402485,0.1187118813824671
74,36.41973269583033,99.3127434772938,0.0,Resting,0.0945136471299473,-0.0300771202384555,9.818736923981746,0.0,0.0,0.0,0.2983248685922456,76.63257392762975,0.1033343101199266
60,36.57954793131774,98.5042188359232,0.0,Resting,-0.0279880196138548,0.0192692994993551,9.850965491672468,0.0,0.0,0.0,0.1327232408276552,60.11502080262339,0.2747068528490429
73,36.46702127765584,96.3011148666067,0.0,Resting,-0.0044265290173728,-0.0451574221751706,9.761892515289237,0.0,0.0,0.0,0.2383555278283964,71.804411301069,0.1472949824477389
59,36.66345072223077,96.44958810870403,0.0,Resting,-0.0289432051526154,-0.0946783267844631,9.789594331276438,0.0,0.0,0.0,0.2348587147400049,45.429834123996045,0.1423013498563536
64,36.91120048865173,96.1972359484393,0.0,Resting,0.03650234602324,0.0470457036203192,9.781094335266085,0.0,0.0,0.0,0.2959910894716556,79.09752736816048,0.2472070800852131
63,36.655443987529765,97.02991686596988,0.0,Resting,0.0324464316659185,0.0251299825882906,9.896817892793305,0.0,0.0,0.0,0.2971201467905601,78.57412936143946,0.1640032226174783
67,36.70537793466127,96.54264586864151,0.0,Resting,0.0430644621058271,0.0161511998111318,9.758449791347877,0.0,0.0,0.0,0.2373357223448259,46.54915831516684,0.2012089384823673
73,36.61499827769177,97.04019216100974,0.0,Resting,-0.0463713540776158,0.0483368257983646,9.758963447669354,0.0,0.0,0.0,0.1487229583964388,51.97692499212427,0.1325022130594912
75,36.24093240515639,97.54023222287584,0.0,Resting,-0.0368663037671868,0.0350461675124074,9.77090964176572,0.0,0.0,0.0,0.2597111676261198,44.00619990027068,0.2919491442923938
78,36.38628684550088,99.77193113628454,0.0,Resting,-0.0749497537807584,-0.0588236023643357,9.812918816258064,0.0,0.0,0.0,0.1214058268422076,50.86870395592719,0.2703162800034474
60,36.59360138354567,98.44150423912676,0.0,Resting,0.0311019943692225,-0.0295037906113297,9.750464548852747,0.0,0.0,0.0,0.2561398608343257,72.63823157660826,0.2727579245930006
58,36.44818822699577,99.33989514273183,0.0,Resting,-0.0920405745328695,-0.074777971664275,9.883057988075857,0.0,0.0,0.0,0.2820392248289393,55.13262428661038,0.181354749714401
78,36.34541087820896,98.84140600284933,0.0,Resting,0.0195364671046918,-0.0740285973164238,9.753137112973253,0.0,0.0,0.0,0.176566678953687,43.53587868587034,0.2524722427414345
57,36.60330627353476,96.45001252210652,0.0,Resting,0.0739391769703267,0.0352391492713078,9.87916314631204,0.0,0.0,0.0,0.2261270589966161,53.68902099115618,0.128775231077956
57,36.45824783475828,98.9436816254958,0.0,Resting,0.0781664296579267,0.0717200213964996,9.720695012729315,0.0,0.0,0.0,0.1860285464193652,79.2553333696512,0.101723800518356
58,36.40648611453874,97.1003955262365,0.0,Resting,-0.0101924479260076,0.0925465167722278,9.83131254047993,0.0,0.0,0.0,0.1875530109976256,65.18734381036812,0.1039945865156056
79,36.57118833395231,98.55643138797882,0.0,Resting,-0.0081392623573852,0.0256694235098888,9.881397103687648,0.0,0.0,0.0,0.162074177821624,56.64643785624631,0.217320347480912
59,36.30662740646574,97.36384789457196,0.0,Resting,-0.0846061633983965,-0.0631797353278086,9.733749887679645,0.0,0.0,0.0,0.2524259240900649,46.6615405398908,0.1910789810495881
62,36.94219658646033,99.99068905305865,0.0,Resting,0.0341530050886071,-0.0788699309102138,9.893665392019852,0.0,0.0,0.0,0.287235312833301,79.44707189134779,0.2036030697817039
70,36.894161678335394,97.0542059179871,0.0,Resting,0.0642518840745691,0.0625701943073515,9.790576672083102,0.0,0.0,0.0,0.2881501718468922,72.83396037052515,0.1014926280834438
102,37.01002723022043,99.02733141520294,55.0,Walking,0.1595428835249592,0.4065601080845009,9.463809824674376,0.2829236142575724,-0.4926421703745854,0.1842090751884866,0.3682192341232203,38.04700929155518,0.2668209304173127
91,36.86794471518298,96.69305614556316,77.0,Walking,0.0804345335572371,-0.1949472890197159,9.173977399521805,-0.0573451517395668,0.0182057321825208,0.3824411913475817,0.399369856856288,33.20253610115862,0.3043661750610379
77,36.612985201199045,95.27716494470616,43.0,Walking,-0.8993541341306721,0.8400801050918072,9.337477045712973,-0.0147332576573784,-0.4624713424681969,-0.2964888916681135,0.2860686347378145,48.978127193780935,0.3171308670857599
86,36.42507413508709,97.77093825502396,82.0,Walking,-0.8741850479639521,0.3005101421873231,9.018081092205684,0.2779094067485368,0.0692302120914479,0.373361117841438,0.2640597484993485,30.39876938938074,0.2016991157214419
86,36.49555910717143,97.93951162447408,44.0,Walking,-0.6253064173464222,-0.8191620444166785,9.400329868410758,-0.1176366689383721,0.4207708496360753,-0.4402377258216156,0.3813306593903998,33.39064617705333,0.3522011965899111
76,36.89784238325922,99.6727012281093,78.0,Walking,-0.9350584566165034,0.8957131345073215,9.54987692115621,-0.0568726546770854,0.4684191305004078,0.3885992804371524,0.2382484258152243,62.305034782519,0.3426028583723481
96,37.147536173474016,98.63030663031238,51.0,Walking,0.4867057911400247,-0.4828854727195082,9.619582592827086,-0.1238095312303778,0.0405526753889241,-0.1709262205392721,0.3230857830065853,60.85893379438426,0.2732572772413044
97,36.5652275231776,99.5888632624722,37.0,Walking,0.4466606079879263,-0.3255750191874285,9.66349034512871,-0.13265948472272,-0.041795194747784,-0.1854123665859335,0.2811428848361895,66.60555281619584,0.2105871871137636
104,36.98802091928408,99.54173605121504,56.0,Walking,-0.7278875311367141,-0.1954791726329159,9.83629131310246,0.0259465769014594,0.445017094248494,0.0120885766986639,0.208216472991111,64.18061743642998,0.3509865079570101
79,37.09316085059923,98.0228705512912,45.0,Walking,0.6721578015905618,-0.8975514071913735,9.21546290727573,0.3087994445011507,0.1736098319966951,0.4406901877232317,0.2694576948611396,57.327022529592725,0.3910350320956265
83,36.81670574275801,97.63881032668225,28.0,Walking,-0.690427930307776,-0.0069691555387902,9.120481822438467,-0.1382316880774341,-0.4351007204615905,-0.4522186353185946,0.2530457045005349,32.09331429202651,0.2480303192044028
95,36.935412636674926,97.787204835818,83.0,Walking,-0.3976488260052824,-0.7533630178494155,9.851537171897926,0.0242547205377366,-0.0342744223325024,-0.1477690249292547,0.3372182307886974,61.3139447194663,0.2647049227474076
85,37.05201225334092,99.89165403838624,91.0,Walking,-0.50204620167727,-0.1980593466232965,9.15661281489265,0.1707273254426008,-0.2597549815356961,0.3565719886833357,0.3897580995383836,63.820432433622415,0.236762577896363
79,36.60854012619247,98.8658384587348,39.0,Walking,-0.2553858028539044,-0.2985804240158314,9.974760081336196,-0.2305605536963449,-0.0301956785513184,-0.1039455225645332,0.2536094374757275,61.96328583087818,0.3153872246689679
109,36.63751653941444,95.531329523962,73.0,Walking,-0.4906724682200762,0.5456801668530067,9.842538229398636,-0.2224771950976074,-0.0445344279936382,-0.300843102402933,0.3622931878303363,50.33916141232105,0.230968278929491
101,36.40050201330276,98.892142033907,49.0,Walking,-0.0220981471230958,0.6063410232654622,9.5008766058896,0.4334131270234548,0.082144802814742,-0.0752058186685882,0.2110719633876819,39.31607354597927,0.2712387886922759
76,37.170475304718245,95.85269024449111,72.0,Walking,-0.1851842372906291,-0.693174235221824,9.981421424922026,0.2235345733310886,-0.1432295096507487,-0.1144474985083306,0.3076242020079626,63.81319902754907,0.3394026027868526
98,37.13403591567708,97.23675274502811,82.0,Walking,0.9731389815586532,-0.2668976252415476,9.097376729108005,0.0771866762233088,-0.3357295505440719,0.4154162014667034,0.2141100127419789,59.08651238960554,0.3120231966018697
105,37.01165461100754,96.05229836088267,30.0,Walking,-0.8881472997435487,-0.2532936779363366,9.303065761175102,0.1477200544206119,0.0037194345899562,0.2619343757430971,0.3868065982261279,69.23044697555406,0.2772925128655871
107,36.46326081678132,98.44791532766617,50.0,Walking,-0.7156372472252968,-0.6971791121278299,9.638224415040613,-0.4707005568965816,0.330202884345762,0.0051155557440063,0.353270256111478,36.22770391023732,0.2840499203615084
104,36.7580023117596,99.38654868096518,68.0,Walking,-0.894348212182795,0.596907010102381,9.350006868473178,0.1181029655616968,0.1640122280676023,0.4883705667215711,0.3315899822409185,39.0265833220822,0.3124221765246459
102,36.48151340317724,96.4518094268334,38.0,Walking,0.2516823899647515,0.4144566566708465,9.928372551980791,0.0095088732242019,-0.1616321340747841,-0.0347224687240766,0.3647792763249329,38.47192599526011,0.2011729455774322
105,36.41273621381024,95.41005370604094,31.0,Walking,-0.8909814451725608,-0.6192364274059305,9.065626088177815,0.0457496797794356,0.4355230227588572,-0.4417621691797248,0.3295039591140326,61.70159070485347,0.2157019736907219
85,36.89294637217008,96.4924654903748,34.0,Walking,0.6728794747522466,-0.2665561828124019,9.549411832060963,-0.1405761731691829,0.4122075712491821,-0.2377256781850151,0.3937888794348582,37.47629185800473,0.3762516135526023
97,37.16866353366415,98.36180928966095,50.0,Walking,0.0238772613638555,-0.7883899502869716,9.590866267395114,-0.4185261022870581,-0.2906516006159012,-0.0639295197806874,0.3427915895729543,32.66639319293225,0.2155757978182581
76,37.12229441874573,96.64380063777224,62.0,Walking,0.0540152491630674,0.2564131941860879,9.652728123777225,-0.3066607663879478,-0.460582414879637,-0.3430973758538799,0.3849317219164493,69.94243226342515,0.341360719242101
101,36.95740385194833,96.39056083776902,56.0,Walking,0.1231890154243884,-0.7572561509027607,9.255666223331817,0.4507447132126717,0.2413087083507622,0.447565126324043,0.3034263784021276,30.992688457805965,0.3840076328218105
109,36.4773124673319,95.92217595292132,98.0,Walking,-0.6583725873875785,0.9718683372498356,9.364566427519865,-0.091300437729066,0.3276102613491533,0.2668488978177731,0.2234128825963725,63.40976240635462,0.2541367208603462
76,36.61933123013784,97.48758213437216,48.0,Walking,-0.6046193937710249,0.5613641493757247,9.843680529664978,-0.0333168441691358,0.4678645659513553,-0.2317127995722273,0.3056355442846034,44.614673662026114,0.2740982874119029
95,36.65604538150824,96.37974414078592,45.0,Walking,-0.3623653542539906,-0.2195229008320098,9.19494276897016,-0.447290210146561,0.3898363940883107,0.0908045335179158,0.2253745656126186,63.66461839031261,0.3137842811689433
79,37.01052004619645,98.65505174569742,21.0,Walking,0.1869928316437028,0.1571278645587088,9.826867847173364,-0.4624337704560194,0.1005347682064148,0.221449157109572,0.318498695835281,52.1848196484458,0.3763417939277169
95,37.04179934338809,95.383112009961,34.0,Walking,-0.579764448119571,0.8226836324328175,9.562655422902742,0.2171814470467576,0.0300523392123808,0.441278928906798,0.2964986121055326,66.06524917945441,0.388381117452084
103,36.70808489839194,98.3201651655566,23.0,Walking,-0.7673365457334775,0.1081985607916522,9.762187511194082,0.0380946641211112,-0.4721589487374137,0.3816353491754106,0.3245150795665563,67.04771945658507,0.3479126496222536
94,36.734307197294086,96.18780007283884,69.0,Walking,0.9402337728368644,-0.6510030272040896,9.71360736626347,0.0087059842162666,-0.2533435531552221,0.0151922261382136,0.2020093962109663,30.36392725123104,0.2173239521709388
94,36.43560723142094,97.44639630525802,57.0,Walking,-0.9560363703807542,-0.2425932888376814,9.207511495384878,-0.2568754695773313,-0.0403852482670735,0.2746526197930176,0.2389680983310728,33.01648703971153,0.3338308311069702
99,36.63130937473501,96.4304496101563,42.0,Walking,0.6053948106720433,0.6862897300594908,9.568812736433872,0.2447507316299222,0.1285039000835678,0.062144753827585,0.2982660863824262,40.01434918283422,0.2820607443745324
76,36.76102814174211,98.61384338005398,78.0,Walking,0.5760702991500442,0.2884260319792358,9.867723152805093,-0.3317634208915081,0.0572518333184106,0.0527038900455401,0.390100712317827,56.77261665454007,0.2941401998982123
106,36.493586437108206,99.7265352012582,94.0,Walking,-0.405571772309808,0.3014487686676006,9.43211623680193,-0.3100652563389799,0.2426359896816905,-0.3852580416618081,0.2767218080710317,65.53088786046024,0.2098296780690354
100,36.762613968604015,99.58538389734906,47.0,Walking,-0.7287467679853732,0.7336429713769783,9.966590770223316,-0.0392878286517245,-0.2202330691129591,-0.3738623419838479,0.2848744052107269,48.39767805175851,0.2382124278692716
80,37.08254064980624,97.91713107572046,85.0,Walking,-0.7087427065891532,0.7879461149250093,9.452215100101718,-0.2137201378880591,0.0649526076524732,0.0295336150224574,0.3429392178013244,54.278924650970616,0.3581027215067295
77,36.86505681578005,97.31305151628489,27.0,Walking,0.394863234474385,0.8395851435588726,9.142785636667885,-0.2525370187668536,-0.4118577566092078,-0.2311384550209934,0.3207585514572236,37.539994111822445,0.2907917666095719
107,36.46314388403073,99.09150254719692,48.0,Walking,0.2856131821723473,-0.8103016134936878,9.389434680077674,0.1452376445533316,-0.086334476416793,-0.4789630975395313,0.2597852300196667,62.19867335526742,0.2603324483262298
75,36.55333705506422,98.41663181313864,30.0,Walking,0.5654913485027735,0.0882520039262018,9.951702406390536,0.1509717452185445,0.250160832954601,0.2228392039002122,0.2821632791134856,68.6931244541388,0.2768038147929916
79,36.77963548012684,95.91782057108466,37.0,Walking,0.8749623447982093,0.4810190424366372,9.319720849339854,0.3245170697999292,0.193400853429044,-0.467513403309835,0.2435399597714465,40.7439573165839,0.370879902665136
87,36.68918971985745,99.104596068065,74.0,Walking,0.383854726533184,0.5138536902540276,9.868098159867063,-0.0822914330270241,0.490642737172179,0.0952768411040545,0.3932042918260417,49.79303806402186,0.3497998034809914
93,36.68698161563688,97.14442194697357,69.0,Walking,-0.6882969268971131,0.2134324039400077,9.88125068168189,-0.4269149089738497,-0.222108874012244,0.0391937941273143,0.2261268763114719,33.44464442025495,0.2544630794362166
86,36.82341395851487,95.94492829985587,33.0,Walking,-0.5131147664691786,-0.6664253296326517,9.350186524331962,-0.2263336150785423,-0.0018107008260208,0.4688146905778044,0.2743673569132839,52.36546625851874,0.2235003680424746
99,36.867516737271565,96.40898675198248,93.0,Walking,0.6843874617462291,0.5948411078833287,9.083257658050632,0.4800054631968169,-0.1704695862260032,-0.0157868606523583,0.2051677944440022,50.111337673867226,0.2503996443288143
109,37.03748925622096,96.33763515124171,28.0,Walking,-0.5813878483315829,0.4402226670298914,9.724557909158818,0.096258575232702,-0.0593968859408252,-0.4363985636222026,0.2443558983867093,35.777459366203104,0.3841512902109467
86,36.67277325076999,97.5960348730173,30.0,Walking,-0.8549553660910372,-0.8277284569019274,9.311512299013986,0.2097370848010202,0.3569501298693881,0.0516879678064616,0.356094227676031,47.682648524723,0.3163177675699511
150,37.38403175959227,97.1019062489456,117.0,Exercising,-2.20977290983219,-1.0169879263825772,12.539888540247135,-1.7808518083058047,0.9980656606271228,1.7183323783902755,0.5046342283199234,37.17124417325204,0.6408066330007514
147,37.976241925734,93.27710051623016,143.0,Exercising,3.460288686417792,-2.835459921334114,9.659114746397982,-0.3137830071278631,0.5222369373829534,-1.2631204028145628,0.6307203070529923,18.70301257984489,0.6643236004038723
144,37.911644153115134,94.48998655022451,149.0,Exercising,-0.0861607983630969,3.062253597011974,9.494700352673425,1.4984231780126636,-0.8254704329605032,0.6475135521787649,0.6482472810655413,30.578733230129792,0.6931240373313481
134,37.60705881149376,93.96165260152816,113.0,Exercising,-0.9365009416670632,3.376390417016858,7.905999624956939,0.2554681275670662,-0.4016059535165284,-1.1701222477644913,0.7195619759188161,18.959757818590827,0.6292284273623004
157,37.385644134092665,97.5826916032702,130.0,Exercising,2.597010822407144,-2.9700223769942955,10.345731624541244,0.9079116781137238,0.0011914975759679,1.3541968280991723,0.7834901190920229,49.93778577131677,0.6190694862371383
133,37.71918246722465,97.02156699706774,144.0,Exercising,0.8668003722534294,0.4560544505050288,11.032935297972632,0.3193369531243615,0.7156033689208297,-0.1156650820642988,0.6445410327616824,46.10948791084861,0.7639054561812335
144,37.55091655192106,97.97290166439932,86.0,Exercising,-0.4451824312200401,3.151781347395434,9.986648950774228,-1.349937420971539,-0.4321290389021479,-0.3554042706394451,0.6713641728844393,16.69135430993889,0.5547928889238112
132,37.56016688671815,95.65680658019971,94.0,Exercising,2.8013755616403806,-1.1538073263947188,12.177291364601947,1.223430821336248,0.4143249884922504,-1.4730248014721434,0.5225606086288408,22.3337118382544,0.7434332618559634
152,37.92125327547834,96.7218547962872,145.0,Exercising,-1.0055520527494028,-3.0408957481292367,11.91354216506138,-1.8142653780687508,1.4232916284956143,1.4657096115950248,0.7948040146167303,49.716250006187465,0.603820173309233
147,37.50121453357579,92.3382911231194,137.0,Exercising,-2.149486541901652,-0.131823461080228,12.28293535417212,-1.9450672476696869,0.7236688504690059,-1.8667072022419664,0.6197328051724188,42.64166208071221,0.6169564095390961
130,37.59737535229512,94.12907434058395,82.0,Exercising,-1.4996507821062224,0.5542510636041955,9.9227926767396,1.5572750397132782,0.6821620260243635,1.346209564678455,0.7276987287472183,39.265411399302224,0.8964226034956349
132,37.74575092107653,95.67610606804764,80.0,Exercising,3.315533835898707,2.4952729196792376,10.86379305529688,0.0775907411338705,-0.7265919114559565,0.0492014436618659,0.6435934611651575,42.46531953127754,0.540781019832111
132,38.001123295800745,95.51225253674572,104.0,Exercising,2.725061158553002,2.4635042401142675,11.570507118235517,0.2601300999037992,-0.4750801889004932,-1.4590352350139946,0.5133983649136696,43.9258778359243,0.6618580113760397
158,37.67010928796709,93.55669502640846,137.0,Exercising,3.0470513901978933,1.7702981517906131,9.356634659779475,0.4106798437780203,0.0258255081460561,0.6457912664524046,0.7433261738600776,49.99094452903324,0.5369383355781729
154,37.51444977955012,92.50789252150776,121.0,Exercising,2.445975137424961,-2.7485846494270474,6.110974817614969,0.2379010378253849,1.3776093727621288,1.527613139053838,0.5262726720248524,23.542240383853795,0.7696029425850845
158,37.74448415692657,95.00118761313672,87.0,Exercising,3.1056735457131923,2.7346029149221005,9.06020434692124,0.3086865064959849,0.4603651494799532,-1.9419396218895648,0.7197324377391348,24.143579635875383,0.8372147787710813
155,37.60547004174022,97.04265650327612,109.0,Exercising,2.724828982185535,-1.6078985631252314,7.9562860886075395,1.7449615512288128,-0.0752473940995899,0.2993561514394995,0.6296639562755071,49.366686280043,0.659528610769623
133,38.017990140740345,96.2077600525303,135.0,Exercising,-0.2169654223156394,-1.4672155167154477,10.073056865532957,1.46676539359758,-0.1619909337187302,-0.3909009302742658,0.7039177388005275,46.42643366709882,0.7088505973728707
151,37.595936939418856,92.36729994886144,82.0,Exercising,-2.484078832803166,2.119030640707749,6.382792345273559,-0.6450003831419711,0.5241367028481956,0.3988176536324008,0.5324232480999165,23.190185050612943,0.5824788317020809
132,37.85422358220489,97.93530010052352,129.0,Exercising,-3.261847963497898,-1.4219168494441226,7.241866290848277,1.431668288974271,0.1639449421123346,0.9966312927061268,0.7915852535779417,24.072536682019525,0.634584465030885
150,37.11750732664301,92.28010891939564,113.0,Exercising,-1.2216986707786033,3.89062538848101,9.969229484508592,1.694972525066594,0.2269292310368711,0.4434403340674016,0.5948014168599182,16.256246291612634,0.6817689276638165
48,36.39771262842465,96.30072964319996,0.0,Sleeping,-0.0297519482823308,0.0262371928574373,0.9953069884135292,0.0102800564822219,-0.002329217228421,0.0050562019536505,0.2271469476861616,82.62204830942272,0.0006066949459774
55,36.02319390181037,95.88096767355422,0.0,Sleeping,0.0260969224725389,-0.037297670192482,1.0321679625263451,0.0084977201555803,-0.0060568860728174,0.0035064353008996,0.1305680390335503,64.85667048917044,0.0776343707735299
58,36.45647470636963,97.86312624495515,0.0,Sleeping,0.0423029517754813,-0.0434062057517912,1.0420314001917954,0.0188461184205385,-0.0137574006935902,0.0091028304541226,0.154566551392242,80.53475123523445,0.097250430024033
50,36.31087709248213,97.23784239828686,0.0,Sleeping,-0.0141449696504363,0.0202096398764991,1.0421254524441177,0.0146190270739261,0.019201321123406,-0.0089771287711059,0.1603615858845103,58.47131405472197,0.0252761630016226
58,36.29883211700487,98.93590083154474,0.0,Sleeping,0.0310988234037504,0.024151871133771,1.022420581668536,-0.0138414899885543,0.0003402387901614,-0.0093235580141555,0.2840399528597493,80.09133859283313,0.0974223916876134
58,36.1494879876274,95.85179720636056,0.0,Sleeping,0.0256940310675388,-0.0186766684925838,1.042383454384906,0.0108064152684605,0.0025392974688164,0.0093458498388859,0.2487078456153901,58.29544215814852,0.0515974224365699
58,36.36368852760802,98.0313274519494,0.0,Sleeping,-0.0477596452232796,0.0359143792903713,0.9873890650075706,-0.0112673135899637,-0.0035778926387869,0.0142797915290961,0.1589230650323057,65.40464110344857,0.0727727460187864
48,36.2546987878205,98.0361952853372,0.0,Sleeping,-0.0421945426956296,-0.0452685302015096,0.9954770240906398,-0.0070705982018844,-0.0127797249061156,-0.0191657434563092,0.2970742931596827,73.95024822084427,0.0260691357692774
58,36.05147194857017,98.98110128070348,0.0,Sleeping,0.0434025476463683,0.0027467163899763,0.98786065445958,0.0158896565531253,0.0117258581475454,-0.0186112021934576,0.1910254571367104,65.24174152696847,0.0789706150231295
51,36.03340408826705,98.2455721466144,0.0,Sleeping,-0.0326611497235227,0.0409658070517568,0.9689377302046772,0.0188317086086169,0.006902645507121,-0.0192890526360074,0.2774619476741313,63.88510384703737,0.0376585719391281
48,36.34190699345032,95.19149098814376,0.0,Sleeping,0.0020820202338909,-0.0457563709463484,1.0108323521052764,0.0064443107795642,-0.0147036630209821,0.0062455836140473,0.1101768395437793,82.91395166006666,0.0133423422231656
48,36.004011270513004,96.41366404719712,0.0,Sleeping,-0.0467334147507911,0.0331797138340232,0.972152450871812,-0.0167339519142479,0.019071159811097,0.0033144398887996,0.2941133718588149,84.31063755502993,0.0694469489718466
55,36.13033261549042,96.83056072308366,0.0,Sleeping,-0.0287810599889505,-0.0156627925937217,0.9956646303732236,-0.0153804032114435,-0.0161045640319971,0.0160621759021487,0.2361110548569554,67.66855413774249,0.0414215921723798
59,36.1515569494705,97.00312806387448,0.0,Sleeping,0.0378802268227564,-0.00534078295663,0.9947899125380923,0.0180066231304205,-0.0080641499499292,0.0019645520047371,0.2466604289465658,67.1734914681659,0.0900304765956163
58,36.17575387277114,97.62838162741808,0.0,Sleeping,0.0212216930603304,-0.0478358396871671,1.027818044929474,-0.008438718231822,-0.0114104406219785,0.0145223789035403,0.2630796813152038,64.97340688442323,0.0231130193640919
47,36.3249257703234,95.04184772116348,0.0,Sleeping,0.0203539231329725,-0.0149315823637273,0.9586790304514614,0.0146095151497803,-0.0049599374185191,-0.0030240177446149,0.1755259843217267,59.28949947943842,0.0734814890943839
53,36.01086934736042,97.95875242263088,0.0,Sleeping,-0.0371883121819282,-0.0047624197814949,0.9601097516285834,-0.010636188919076,-0.0040306869326086,0.0194998892947704,0.275054451986694,66.89011274168712,0.0556545247838576
48,36.21632134047555,96.8257045493408,0.0,Sleeping,0.0457612210392056,0.0339613448220927,1.006810560971367,0.0190399267599369,0.0183272823315664,0.006611247996939,0.1859642876991227,64.95740486017228,0.0955809153615561
56,36.25409177385572,97.08890014758586,0.0,Sleeping,-0.0016525122476888,0.0471984443911291,0.9916059212978736,-0.0168168074849922,-0.0099791235160405,-0.0140230304048944,0.1997553822843428,88.68694075393921,0.040215382957588
58,36.003459878103875,97.71056895973392,0.0,Sleeping,0.0408228980998681,0.0098082285353337,0.9859153377883608,0.0114315195149259,0.0043832361008448,0.0125582679989544,0.1285683943597388,85.16421291718625,0.0689951607551736
54,36.2942662114841,96.67464590936568,0.0,Sleeping,0.0027333674701981,0.0003017805640306,0.9697953275450814,-0.0156997297536162,0.0059965230447916,0.0092828403883645,0.1658460079662694,51.30244294479972,0.0140357870319557
58,36.30803742038369,97.54228290694807,0.0,Sleeping,0.0392563717249863,0.0063735176977246,1.0211880982559325,0.0012264949141338,-0.0155170342546486,-0.0012510478548835,0.159177185587863,52.92168035384074,0.0749275819374849
56,36.10435423810648,96.68133407959223,0.0,Sleeping,0.0434657500416888,0.0205782767830708,0.9938255078095668,0.0010278589045822,-0.0013695050986145,0.0024397707604316,0.1343818571433568,70.8452250753896,0.0253288358020263
49,36.07764748708372,96.91863327998674,0.0,Sleeping,-0.025445401885709,-0.0280454344692246,0.9661604069054884,-0.0142021532404117,-0.0172730870098623,-0.0122977555762475,0.1392419635689743,54.99926923828252,0.0635204067153345
58,36.20296252402312,96.05476471173304,0.0,Sleeping,0.0180738133362709,-0.0142666457284737,0.9639505267712458,-0.000227581864283,-0.0100498480628644,-0.0192834943864607,0.2331500323135361,78.62605084895361,0.002419676120313
57,36.46194324124441,98.83445276583096,0.0,Sleeping,0.027710102093465,0.0162349633910775,0.9780324455341608,0.0056738895694521,-0.0036595090489798,0.0177945914037615,0.1279214760329103,59.5793077000974,0.0394341103942063
45,36.175264289921394,95.7413330402944,0.0,Sleeping,-0.0226862939532825,-0.0009522876289041,0.968640960130584,0.0032253657346621,0.0055370605358683,-0.010073942095319,0.1366107121157392,83.50268266479641,0.0883525891593128
49,36.46326206141752,96.03519679701374,0.0,Sleeping,-0.0058230201940182,0.0366145474731306,1.007551165174465,0.0142449430414777,-0.0081514399287194,-0.0077887512253177,0.2010086209874847,83.8368515708533,0.0983354109386696
46,36.154138101021616,96.23109495246672,0.0,Sleeping,0.0171953077156861,0.0423530648728849,1.0393169237461428,0.0005398404606129,0.0040273359899638,-0.0134101725414562,0.2984818025677055,54.08960737699897,0.0109504533194686
59,36.454834004920265,98.57671511325157,0.0,Sleeping,-0.0120135537298063,0.0428874603204652,1.029739116874453,0.0169361591180746,0.0197093260245362,0.0077986094185059,0.2576089274571702,62.95521858119171,0.0446590943620514
57,36.37543800017736,95.30790061010158,0.0,Sleeping,-0.012821407930223,0.0169792768838565,0.9659465888348032,0.0162867529601864,-0.0098299632640109,0.0094121945301903,0.2957726311587997,88.91045823701717,0.0263154278951571
48,36.1702206909342,95.89971446505548,0.0,Sleeping,0.0432563174263956,-0.0409774462404336,0.9619771118717668,-0.0011288995416512,-0.0097600887188926,-0.0019203050598338,0.1346499691124819,76.68277610555535,0.0245545203746724
56,36.48677931739767,95.22685491852468,0.0,Sleeping,0.0258435643951474,-0.0243629049330664,0.9753560905602712,-0.0057602011827567,0.0130428586048668,-0.0091155587061857,0.2484883240206222,69.28968032351038,0.0777641847758237
50,36.30525430660727,98.53658084203995,0.0,Sleeping,-0.0106648982076212,-0.0110341967257062,1.0354136713692526,-0.0191375529559582,0.0002828499320299,0.0099947065115628,0.294710304642038,89.2539617721041,0.0293794715787489
45,36.2763999400983,98.13439620837286,0.0,Sleeping,0.0086500174869316,-0.0021051842799186,1.0088385566737892,-0.0104477283704561,0.0186694205204185,0.013529259890413,0.2078960730430384,72.00609606786202,0.0717921497665656
53,36.12486372993923,98.9712407363811,0.0,Sleeping,-0.0308290211344553,-0.0050506385177643,1.0209547168810809,0.0136145212991491,0.0011886081222362,0.0068797874170631,0.2965557427528996,55.44200610800245,0.0774990251237762
47,36.3694422297122,95.024943101163,0.0,Sleeping,0.0116378572184785,0.0010599830853227,0.9688124542702562,0.0021226517753283,-0.0156497784917941,-0.0012326003937316,0.2137092036693611,71.7200841556314,0.0877420570150748
47,36.38896215657632,98.8478679021544,0.0,Sleeping,0.0061445675827124,0.0246884757093358,1.022482345878982,0.0160546940208931,0.0102192196755025,0.0094586789313075,0.1002432813694827,52.62880968281814,0.0186305092007674
56,36.423976792259104,97.61919644513986,0.0,Sleeping,0.0166589460207298,0.0213834395907504,0.9768404330291148,0.0044895681696453,0.0185820590392723,0.015406367978144,0.1480012158330604,50.27499196182154,0.0717872780347802
46,36.11685439774896,97.5486398364696,0.0,Sleeping,0.0264146518202346,-0.0474990538684789,0.9935409051288752,0.0136929205386554,-0.0059583121382387,0.008736850654894,0.2503160945052169,56.35160338766421,0.0986750210095086
56,36.383979762848845,98.85555850668834,0.0,Sleeping,-0.0470801620445095,-0.0218470089875595,0.9625295725837756,0.0187022292598312,0.0091633071385368,-0.0067198870111104,0.1108632179897519,85.83572913035964,0.0832672567213397
59,36.49519244195957,96.1590576475327,0.0,Sleeping,0.0232161589552034,0.0386269052738762,1.0184288836722195,0.0048528278931401,-0.0158790142532839,0.0169506645383657,0.2902258771905341,69.7755806493631,0.0436431351954544
59,36.28739017414901,95.6968765530572,0.0,Sleeping,0.014185718501324,-0.0072524814928429,1.0108174886612336,0.0040048306141749,-0.0196776875290791,-0.0021361221579295,0.1599478604247489,66.64401634256862,0.0780204107788743
52,36.11035541109015,95.79156331433512,0.0,Sleeping,-0.036616198008032,-0.0343775351853425,0.9823121393972288,-0.0180531228015941,0.0086067160043333,0.0142754965320263,0.2529182454391413,78.03051954360075,0.0908932569110385
50,36.46775376556992,97.50133618306933,0.0,Sleeping,0.0268757278719335,-0.0468964370155459,1.0465629648828032,0.0044485263849577,-0.0169739994252183,0.0073073630364513,0.1957556842073392,51.70381175746003,0.0790397317983036
47,36.126249348809424,98.70308176834844,0.0,Sleeping,-0.023399798566135,-0.0411242438848353,1.000408439576903,0.0116463506416973,-0.0166040688698523,-0.0168027045581504,0.172745329417551,57.01059548475407,0.0644200634111947
47,36.16673390881371,95.52650994112756,0.0,Sleeping,0.0156036766157164,0.0065952130146871,1.0241648332649913,-0.0033075437859299,-0.0011233367018185,-0.0032057404857877,0.1670444444128445,60.91923068987991,0.0871369791156149
59,36.467239725567936,98.84005161316692,0.0,Sleeping,0.0449074820744177,0.0234704841795585,1.045731509632199,0.0054703449874241,0.0127854205434198,-0.0062620851335058,0.2225758789749688,87.64591029608204,0.0447734492812915
54,36.02801096927846,96.9187394573468,0.0,Sleeping,0.014015512911911,-0.0389427855582563,0.9937478588373856,0.007596458517787,0.0124715483624664,0.0098693769813584,0.2076808987989191,78.0111835589486,0.0442976154020378
59,36.12531444556786,95.88639255121606,0.0,Sleeping,0.0112012080881252,0.0401233182383477,1.028561785516533,0.0120953671182348,0.0144133472029833,-0.0174702589817937,0.1691247028546313,63.99788682382077,0.092099086128752
48,36.12108709300982,96.08642863013704,0.0,Sleeping,0.0464412674457325,-0.0237311606284166,0.9622536538921608,-0.0057573502491635,0.0129479541247278,0.0168737366289455,0.2906603273280875,52.98076261761246,0.0099997891314979
58,36.17497790258514,97.24924566007644,0.0,Sleeping,0.0136902232599954,-0.0409056842075737,0.992303553311826,0.0138362848400986,0.0153578337841728,-0.0167592622097767,0.1132987119464376,84.34318107158413,0.0825956754038831
54,36.30589799748226,97.747689076543,0.0,Sleeping,0.0209146984817491,-0.0340774359160175,1.0389035979315433,-0.0017463632195557,0.0009704996972138,-0.0172984442007103,0.1242040106329893,85.82688088300576,0.0391952041664535
56,36.38783828136397,98.4469508236946,0.0,Sleeping,0.0344001238333285,-0.0140879752655741,0.951376422264384,-0.0180499426300344,-0.0026143907074804,0.0188881352218763,0.2528684177243517,52.32637035953864,0.0781929012445282
55,36.31103838873393,97.112139605526,0.0,Sleeping,0.0072451626000431,-0.0341050102895665,1.0236519398710884,0.0115809477313294,-0.0118788226832718,0.010915644069019,0.2884313102309064,71.5385152289138,0.0806256737152039
46,36.38755003659185,98.05866483042615,0.0,Sleeping,0.0026141482579702,0.0157672094818069,0.9828917544610144,-0.0122509802216974,0.0115123527114368,0.0190482386388872,0.2782040855938472,78.89192021623,0.0957565053830979
53,36.31166619971184,96.4636690981684,0.0,Sleeping,-0.0236551106850545,0.0346643820916441,1.0115610205952985,0.0146897352128365,0.0052667132621414,-0.0077299892738119,0.1138780582833705,89.03524991212777,0.0028407569228717
59,36.434218796363,96.34495527498578,0.0,Sleeping,0.0281507681093272,-0.0352811262550865,0.9795654240151204,0.0198242038429817,0.013466098610328,-0.0168742300979549,0.1746092683425199,75.06597049600455,0.0776033381748157
53,36.16379406643572,95.60481333015738,0.0,Sleeping,-0.0169796252603665,0.0411645880275769,1.0277625774112933,0.0182171436239726,0.0038076961429366,-0.014650443397406,0.283532126762185,66.53993055401779,0.0607599136209191
54,36.36672841049679,97.742611985239,0.0,Sleeping,0.0262752401117686,-0.0423275634081437,0.9727324976377214,-0.0176161930530779,0.0164609468948404,0.014526853435116,0.1192318156079785,83.44787465908789,0.0415347021537901
48,36.4741752657741,96.63802718555591,0.0,Sleeping,-0.0100395217201494,-0.0297001394325005,0.9700325014518676,-0.0190151592931733,-0.0083655698044537,-0.0023005956749953,0.1504101837490408,76.87518956436179,0.0209566229018622
56,36.25121468306693,97.33396978898442,0.0,Sleeping,-0.0217955819902738,-0.042731779446758,1.0105776154454753,0.0091296098239474,0.0158094372803851,-0.0174878893308808,0.2674740937763148,67.2912508470348,0.0967849864148349
49,36.46562546447494,98.67503282095532,0.0,Sleeping,0.0492220878105746,0.0016864031583496,0.952882726745051,0.0182136992911519,-0.0183266553023462,-0.0111742008077485,0.1301175347016046,63.56756871278395,0.0180160100729436
48,36.24381428530448,95.95805056085612,0.0,Sleeping,-0.0323309830220263,0.0414403417702485,1.032102047751172,-0.0022877997985191,-0.0002898036302897,0.0042891538076572,0.2248447857507246,60.3723830293709,0.0507153943988576
59,36.32300403148814,97.92557815857305,0.0,Sleeping,-0.0215234929777528,0.0411690495900816,0.9696055869529326,-0.0196128354679152,-0.0133371858699198,-0.0065850156985604,0.2936730927875991,70.50803377317195,0.0589274782077118
49,36.040002357678304,96.84167452409775,0.0,Sleeping,-0.0118973108796959,0.0103657621328087,1.0326722875484475,0.0165115287109127,-0.0071662651875695,0.0137375569946733,0.2552811525611599,79.98561994979156,0.063370079146597
57,36.236076688530254,95.88783415644714,0.0,Sleeping,0.0314521689827022,0.0030377419427767,1.0431328849886483,0.001589296102807,-0.011642847354513,0.0024314794722238,0.1700135479097047,52.21344336973442,0.0937575341864395
51,36.44041934587046,97.72612767652166,0.0,Sleeping,-0.0392089296360956,0.0179920374319458,1.0201301592739591,0.0189591761524085,-0.0054122408533306,-0.0033107819417448,0.2061830881139011,85.08735610546987,0.0444452715340205
49,36.40141706947766,97.85756605425765,0.0,Sleeping,0.0364549007596475,0.0426402020805014,0.9584679435260528,0.0160088193415211,-0.013892937555206,0.0172149272875871,0.1191485182196776,84.09910689533424,0.0990915740245979
49,36.28444082276037,98.49824566965653,0.0,Sleeping,0.0064073601213499,-0.0369602944782314,0.9687763994390506,-0.0151643062630365,-0.00612574173648,-0.0008747165665152,0.2765131273849379,73.47355375425131,0.0856323882802669
56,36.05191214780843,95.70571569913936,0.0,Sleeping,-0.0225698508478693,-0.0063584013826487,1.0428744657885616,0.0126507481897991,0.0047693671104248,-0.0024119088737788,0.1024907827520359,50.10074115968662,0.0876696869832951
53,36.44188051029728,96.36959155302404,0.0,Sleeping,-0.0465455015067339,0.04114701582196,0.9665215287250551,0.0050744713156183,0.0188041680670206,-0.0046903166427281,0.2241438107085943,76.20342591927457,0.0995083254498618
49,36.46459257480382,96.49285940596332,0.0,Sleeping,0.0196254609356762,-0.0079581133788717,1.0163144931831871,0.01409920807546,-0.0194950822383311,0.0046604500927749,0.2551576868114051,74.34823946305761,0.0063571302543946
54,36.254341725010775,95.36007007003754,0.0,Sleeping,-0.0454105035078813,0.0177383953801841,0.983240710418396,0.0132370017559988,0.0008935859740642,-0.013722445100537,0.2799863812128411,62.50271177295871,0.0639973857104361
48,36.09092764701424,97.01629104582402,0.0,Sleeping,-0.007398443649086,0.0383261871571955,1.0297469768376872,-0.0104438168607017,-0.0168441004857778,-0.0043970859660797,0.2657032076237341,62.01159435877874,8.552008101362363e-05
52,36.47802546925929,98.21048511893446,0.0,Sleeping,0.0069149326656957,-0.0188997725831261,1.0413660338871231,0.013641795881092,0.0091883612461228,0.0026787558120737,0.1885199800765246,78.42756476247709,0.0936356169806078
51,36.386631163666166,95.56670924422438,0.0,Sleeping,-0.0366646116879211,0.0227567402284391,0.9897256824713632,-0.0174753992052326,-0.0196011410824607,-0.0114837510809546,0.108449171192862,78.01596295651923,0.0930225214027151
51,36.42606689668022,97.3291624748307,0.0,Sleeping,0.0132827660347428,0.0492410676741641,0.9549485663070476,-0.0047793558436655,0.0076742872337747,-0.0061192525827372,0.1020355600944092,64.18455798354555,0.0649096036676106
48,36.28658551124807,98.115312509573,0.0,Sleeping,-0.0204894784062744,0.0258524342189936,1.0033411965506371,0.0065067270660111,0.0103670038365147,-0.0059477573896242,0.2594319242502331,53.4806138591844,0.0356925227945859
53,36.01147186013898,97.22503988700228,0.0,Sleeping,-0.0185191166634398,0.0054472156406591,1.0233587246327498,-0.0098709267177387,-0.0149455071584355,0.001409417337815,0.1440998016804004,87.97954844524128,0.0626475992360628
50,36.10459733612514,97.97827043451504,0.0,Sleeping,0.0189485324281466,-0.0111073320847731,1.0497444987299809,0.0134580627713623,-0.017731235555269,0.0096780168021964,0.2275587836653753,69.9171921659296,0.0133672015655182
57,36.22194300640311,96.88879955904991,0.0,Sleeping,0.0222908031239681,0.0378441090069253,1.0490812456777665,-0.0073710886573103,0.0107980473053442,0.0046534928098966,0.2441036572210224,50.80566176078064,0.0672686819900362
53,36.112718727104735,97.13867616656698,0.0,Sleeping,-0.0066458175232045,-0.0056983465283541,0.9649328247627216,-0.0112824045741861,0.007627022853301,0.0037090361290688,0.2001098108565384,62.62511946094837,0.0620080241119132
45,36.400357742448975,95.93178013287704,0.0,Sleeping,0.0442856189488827,0.0311062961882825,0.9839960172217264,-0.0179017018837958,-0.0113398087807299,-0.0183035223708685,0.1938689683058332,77.49080199456468,0.0849549466911214
45,36.23910339738793,96.58272184067688,0.0,Sleeping,0.0455648342035632,-0.017117456224982,1.017782516351997,-0.0079573348581305,-0.0199785261416148,0.0109928395052636,0.1385400091671373,61.29199097942163,0.0333399078577788
55,36.3256844805683,98.05762600667532,0.0,Sleeping,0.0448008677698406,0.0302986037697521,1.0407661288221997,-0.0157741974686121,0.0177464321341618,3.839351887518702e-05,0.2698221371500315,71.50605406642245,0.0159326035672242
47,36.21593264306732,95.46778141070186,0.0,Sleeping,-0.0025158686215677,-0.036513737741877,0.975057093505914,0.0009427687003706,-0.0110129441585046,-0.0056315970258501,0.1044289531719149,85.0043068434845,0.0308837767217425
45,36.03279731294589,95.74695857560155,0.0,Sleeping,-0.0081133820176902,-0.0400483527569132,0.980772934962966,0.0182274840682788,-0.0147788983369668,0.0152499501942231,0.1646735248719837,70.53018918150649,0.0902403867500044
55,36.17007492114689,96.94467786534672,0.0,Sleeping,0.0351079325053989,0.0482971776410787,0.9648084433772686,-0.0076311805825577,-0.0162912249440591,0.0003921261075783,0.1479490312325175,59.82453795703937,0.0879593911723156
47,36.3337016059549,97.08837267950574,0.0,Sleeping,0.018037419976517,-0.0273440607537022,0.9888934679562148,0.0199080946301942,-0.014441851103818,0.0075558496008725,0.145249828812949,87.43383650167746,0.0740704274597905
53,36.056420069484034,98.88920848330724,0.0,Sleeping,0.0200515383791602,0.0423357019391765,0.9516684518866132,0.018433593416236,-0.0177170258404892,-0.0116603123490887,0.2524297932428203,52.179923988180185,0.0389770950209187
57,36.09351559464723,95.42609304247163,0.0,Sleeping,-0.0080664223841433,0.041712692527099,0.9657979141949355,0.019158106613397,-0.0068215734524837,0.0095794152272207,0.2953214454449884,81.55116656192692,0.0015344394757223
46,36.419897793092936,95.88053982182632,0.0,Sleeping,-0.0179757970201761,-0.0364377524988098,0.9952946216007742,-0.0087186155094923,0.0039274806587563,0.0134519836388898,0.2422038799465941,78.76072867099532,0.0060900502108103
58,36.43320617528446,98.13815673851076,0.0,Sleeping,-0.0257198979669045,0.0087872218232811,0.9561700249654428,-0.0191885432637055,-0.0147117490658004,-0.0142947155439644,0.2858657566650195,82.72175840188606,0.0797553926090897
50,36.10841088083499,98.3819786031965,0.0,Sleeping,-0.0401464270040636,-0.0045480133176319,1.0405086089110704,0.0167302982865153,0.0140482838385464,-0.0149856289690323,0.1644211180374682,75.77075931184295,0.0119577884600292
51,36.37640826543253,95.66297154740548,0.0,Sleeping,-0.0181005532533392,0.0180584927996612,1.0117779106995812,-0.0166050856174136,0.0141416941990563,0.0025980319733118,0.2109253285665258,82.69006084173029,0.0871134202324011
49,36.45918814161572,95.9575765644674,0.0,Sleeping,0.020931853435626,-0.0101763663316331,1.0168873686117248,0.0031605968447174,-0.0143308486259219,0.0192966646428645,0.2516751680806806,75.7468182505794,0.0676237318329233
52,36.27158445171948,96.71526763094106,0.0,Sleeping,-0.0269501684101513,-0.0185458064642797,1.0242467765094494,-0.0192506550698618,0.0056453475387969,0.0111257372598667,0.2985514699262885,83.00356918796439,0.0886539845811785
58,36.4022505883325,98.1106758416658,0.0,Sleeping,-0.0089529436606107,-0.0273612027044296,1.025929772492023,-0.0198811432073828,-0.0176477848932918,0.0016883723428066,0.2711529833998514,50.083395305364114,0.0012512655328765
58,36.16056295237655,95.80634440298986,0.0,Sleeping,-0.0010839671619909,-0.0084782247220305,0.9627896397454953,0.0136049031257541,0.0154634220703945,-0.0172946265241948,0.1665089873054649,55.86203709900322,0.0835447599051389
49,36.43655762977875,97.84536238253636,0.0,Sleeping,-0.0122599204788221,0.0260818294525343,0.9706024200618442,-0.0117445547639807,0.0056076081938222,0.0069264472133856,0.2932037284712118,53.99266736807799,0.0158612105356826
55,36.44289840890145,97.72017345360688,0.0,Sleeping,0.0094740749491818,-0.0038680337207904,1.0239806720737386,0.0025873539139741,-0.0120095234867853,-0.0072670512041234,0.141858909570513,65.84635658111037,0.0635528581187851
47,36.30295159883946,96.73826328471864,0.0,Sleeping,-0.0178345751460744,-0.0106709441201021,1.04246491314671,0.0065137636838722,-0.0172730843971301,-0.0031776024457949,0.1986440916343474,77.81964773294399,0.031056870575703
58,36.33538804013608,96.52156194060264,0.0,Sleeping,-0.0492179484958226,-0.0193322682928691,0.982150713594556,-0.0051710411577335,-0.0066850782526326,-0.0105529723678161,0.2434091416915728,53.717009369065416,0.0120070159998725
48,36.24255515039034,98.77430921131668,0.0,Sleeping,-0.0021468351781375,0.0436447437108805,0.9793885864158324,0.0059759984882546,-0.0054931151747788,0.0047930200673838,0.2621198819624531,80.52861450380064,0.0189659316944086
56,36.09306849243337,98.52581338467655,0.0,Sleeping,-0.0454828588400218,-0.0341956957195909,0.9576680098553432,0.0045409256345646,0.0136653399288817,-0.0108624294380547,0.2563766805568858,58.69863040669342,0.0903429284054501
51,36.18388547402164,97.08569782160708,0.0,Sleeping,-0.0100495629084916,0.0119126373961884,1.0090141522038325,-0.0157432950722931,-0.0113547823694832,0.0066129146435461,0.2773531745593448,85.34483153280684,0.081124559256819
57,36.45786821863544,96.1575556380364,0.0,Sleeping,-0.037715228788362,-0.0201771525287829,0.9696314337414644,0.0177695099079036,0.019287304924457,0.0151505140504051,0.2184769517380168,66.88798863164251,0.0231444167812705
59,36.22543967513373,96.76343333530602,0.0,Sleeping,-0.0260115758937782,0.0363655864226194,0.9575871323776644,0.0053682081873707,-0.0146656851052659,-0.0156336201989896,0.2900384257572038,77.50640207994427,0.054067967498388
49,36.45086643428149,95.9528228460427,0.0,Sleeping,-0.0289128355601789,0.0371335263362802,1.0479892026790611,0.0075790183200162,-0.011845255997362,0.0065936159907404,0.1603540863752554,64.61954762236114,0.089867143232324
52,36.23041492024067,95.63844046632028,0.0,Sleeping,-0.0076773615255973,-0.0369284542800118,1.0211796172848917,-0.0171863544100104,0.0187126270174912,-0.0181545966484679,0.2419844494363873,65.74869001546973,0.0839784214730599
56,36.07026913627637,96.0249726243418,0.0,Sleeping,0.0022893008594688,-0.0416397745732986,0.9628234777974416,-0.0094796263176462,-0.016526831562331,-0.0140864154736248,0.1980573330534668,63.02408689614323,0.0982497173028736
52,36.062597208857085,96.21182324581744,0.0,Sleeping,0.0303035324659761,-0.0035996026774571,1.0286035854704816,-0.0012413285587,-0.0069863484732009,0.0174040426707531,0.1582330560127768,75.20062442728812,0.086376236188772
55,36.03910572401236,96.64893438490692,0.0,Sleeping,-0.016076513148364,0.0395317182928623,0.985462795133398,-0.0163547263234608,-0.0091407091750398,-0.010491176491575,0.1151194331195683,69.52483559354378,0.0072606921945211
51,36.21893815736703,97.13788742583824,0.0,Sleeping,-0.0090264142670105,-0.0127877396861434,0.9859307189022822,0.0093596870912502,-0.0122320634105591,0.015145497992302,0.1449748764898893,53.896086994028,0.0357100629787388
47,36.4020420576414,96.8171669622612,0.0,Sleeping,0.005512843310191,-0.0472932899632466,1.0339206904626796,-0.0146371181440972,0.0168382110373345,0.018211318328716,0.208688862434572,75.10157514261296,0.0203989831326355
59,36.34439283676796,95.8790451148214,0.0,Sleeping,-0.0476253114839937,0.0409034016814806,1.0016788799456997,-0.0017507513171401,0.0032936891170633,0.0184206317433028,0.278610664001661,67.75584232165563,0.067822173249633
50,36.48257129190707,95.78053866747597,0.0,Sleeping,0.0083007520283615,-0.0097679168660865,0.9559283535477956,0.003446172399823,0.0048630504787368,0.0042498080635179,0.1052183041387904,82.15917539063855,0.0676782716007282
56,36.13494772419368,98.6576663584946,0.0,Sleeping,0.0436427025456297,0.0323013972321358,1.0407680747974486,-0.0169671878711641,0.0193027106271258,-0.0188857296450806,0.2175382002002578,83.02547501692897,0.0665214231413084
59,36.41214753991409,95.28947552441116,0.0,Sleeping,-0.0392069532780373,0.0092925942730486,1.0311366656209846,0.012030859366531,-0.0108977865695628,-0.0060382846357452,0.2953051968148368,60.70518702086609,0.0378415768036267
56,36.22812304556281,97.91502769860011,0.0,Sleeping,0.0340163867357552,-0.0117390231401567,1.0445089859284524,-0.0187318978360011,0.0039279401617017,-0.0142843632109055,0.2415882118811263,83.67599681382971,0.0810801200784411
53,36.36655122205017,95.5002520285554,0.0,Sleeping,0.0170729199821457,0.005060429121725,0.9959860291325816,-0.0046272726587117,-0.0199561928815294,-0.0050649943167794,0.2150897891062552,67.04071661044165,0.0331722733339596
55,36.21571289249913,97.71752485855032,0.0,Sleeping,0.0050474641977641,0.0041955781655392,1.0205484958841733,0.019771291238879,0.0146929259667316,0.0001177365368372,0.2021848440032581,87.53996520656828,0.0210921417123686
47,36.16138068719766,98.75987930721004,0.0,Sleeping,-0.029402396627103,0.0454111029503709,0.9935350343278884,-0.0064600142317676,-0.0112840527381519,-0.0152058940258902,0.2040004750401866,71.20577672783628,0.0085610891846563
56,36.25388478779912,97.96814557577302,0.0,Sleeping,0.0074221516799514,0.0176121652625271,1.0088982676046574,0.0099841788691668,0.0148060183652966,0.0191585520489064,0.1705528879434291,61.43725297612078,0.0007089170493427
58,36.106533814912105,96.99276253229554,0.0,Sleeping,-0.0368943288431589,0.0062270849745061,1.0222645387376823,0.0012379448168266,0.0176717202561494,0.0109322690788976,0.1085736761992912,52.589073837114064,0.024902584852258
50,36.13010873306388,96.97282928185837,0.0,Sleeping,-0.0035019580174859,0.0334207287510334,0.980437617186722,0.0182312965369634,0.0158454957610772,-0.0146229718812753,0.2035518253443473,58.47848011751696,0.0080565921121432
58,36.3494927048462,96.11221950741964,0.0,Sleeping,-0.0487165428012468,0.0120109845230335,1.0054955106449366,0.0048497895850098,0.0082896338201567,-0.0110571014957066,0.1548490962526372,51.7530873431691,0.0571212157877804
58,36.08365109846913,95.25745522149238,0.0,Sleeping,-0.0217524580166956,0.0493664279349666,1.0016380402894771,-0.0168828315649876,-0.0169901505045197,0.0167525930371218,0.1716584755093221,58.43783937953647,0.0625516598713017
49,36.17951530626361,95.30860333303528,0.0,Sleeping,-0.0365657126118083,-0.0204156125148255,0.9759962757015532,0.0036186560153381,0.0077771425310621,0.0093459028368151,0.1848686787690815,80.62079170678184,0.0315395402912243
51,36.20317330256211,95.65658780952955,0.0,Sleeping,-0.0179325404865528,0.0293831872352757,1.022177233791102,0.0068567907173901,0.0066270024009213,-0.0036430899303936,0.2408942355654069,70.64745607801886,0.0167600656425027
48,36.48603912411799,97.14312684775676,0.0,Sleeping,-0.0372941039603875,-0.0374860182485929,1.0331316753985391,0.0063698403943443,-0.0117565184091708,0.0167486242651688,0.1020389685500832,61.09795797970064,0.0712708318669354
48,36.10535134853245,97.57336138812296,0.0,Sleeping,-0.0180208233986316,0.0060803408302539,0.9671492426849516,0.0085524343284512,0.0036143401084675,-0.006165580004925,0.2269646147032376,82.40568977285591,0.0404587208395338
47,36.0317900192004,96.679293899044,0.0,Sleeping,0.0098652796963442,0.0020774801276926,0.989518590264944,-0.0192788763349906,-0.0070131705328986,-0.000451519797076,0.2770874532979971,75.86972506274904,0.011207392683392
53,36.043564956296514,97.80624098254889,0.0,Sleeping,0.0485558967259289,0.0331701486405038,1.0097812497505605,-0.0118446101464013,-0.0141576194739744,-0.0017888919076841,0.2819777709749175,83.94474411250533,0.0344765314592074
46,36.04837910987678,95.75215107335973,0.0,Sleeping,-0.018019299572284,0.0448572245852301,0.9556097216788122,0.0040047706429903,-0.0146248683821214,0.0187880191943334,0.1682287117036359,85.4920925644212,0.0799545221720443
50,36.15438142209185,96.3872248609098,0.0,Sleeping,-0.039585715740145,0.0406018926148871,1.0058138711857012,0.0181925051213285,-0.0110122408330903,-0.0085005931420445,0.2565386126307196,76.2383096708557,0.0237729485887961
48,36.24401861827686,96.7804064148918,0.0,Sleeping,-0.0236240063724331,-0.0223973080275339,0.953655366705311,-0.0042978083678227,-0.0009682917081882,0.0016549582692894,0.1515622307118388,72.70070234958908,0.0232403017676927
47,36.25398417004025,95.89613019564412,0.0,Sleeping,-0.0261731476864798,0.0400849476814928,1.0400701562484294,0.0124555198339506,0.0152240770494686,-0.0142984542763931,0.2357030933009233,57.60067278998744,0.0909224560656515
55,36.49179733239187,95.09249098006802,0.0,Sleeping,-0.0381925865594622,0.0354294861784042,0.9816807150163328,-0.0071585651919457,0.0172631384112167,0.0044334582396722,0.2299457347170257,83.45723390872237,0.0011689277961747
57,36.26985932136628,96.1418363211649,0.0,Sleeping,0.0275729009444684,-0.0067427708028385,1.008292587258056,0.013582303329093,0.0121352260377596,-0.0003316277457195,0.2648565422308006,54.594704907351584,0.006397092938065
48,36.11629055871465,97.50022073179628,0.0,Sleeping,0.0425048611895341,-0.0316672333559031,1.0001127749498238,0.0044002806892916,-0.0189021139977803,0.0135922885340404,0.1497108094614077,77.89096495068517,0.0769353127037165
46,36.01266234154882,98.47672749892392,0.0,Sleeping,-0.0011354826123954,-0.0123554180757068,1.0163841552461097,0.0043400464990738,-0.0160151039122402,-0.0150345821003117,0.2708391861323654,58.83518708560766,0.0655216841910284
47,36.18788411785004,97.64470730884668,0.0,Sleeping,0.0496577975314711,-0.0005991414911964,1.029249623594491,-0.0088886568040844,0.009456522641386,-0.0177080820881347,0.2303077094979777,54.92070830473817,0.0682740598429907
57,36.416443281314926,97.6972079468916,0.0,Sleeping,0.0210615869686565,0.0498779092641182,0.9937053305526384,-0.0196903281190302,-0.0054818576944317,0.0010100100139277,0.1722273789161485,84.74374297961369,0.0069213128374393
52,36.28256666439677,98.52559795764418,0.0,Sleeping,-0.0011102015919136,-0.0218947316280859,1.048614275842919,0.0187971084401809,-0.0042311103097346,0.0049284781829415,0.2986009128530856,65.84876839880992,0.0703781139721298
50,36.119593979562,97.70131527346904,0.0,Sleeping,0.002037872736113,-0.0046471847414599,1.0473166067250226,0.004134546760588,0.0104981943428767,-0.0097556377658143,0.2853368201639222,79.97494007429714,0.0407890686343559
57,36.3308615574584,98.68851530298066,0.0,Sleeping,0.0303223190578429,0.0145058875630681,0.9992205610240016,-0.00612725963427,-0.0036343645151482,-0.0152779626718909,0.106256201305032,60.24738685372553,0.0596467049076641
45,36.01502294683701,96.4067660429636,0.0,Sleeping,0.0063230014895605,0.0302853686176333,1.0328849170591468,0.0048886510230125,0.010834621291057,-0.0031342577273559,0.2174367278652028,82.67678285572072,0.0341932307929533
56,36.09331890226613,98.76012133033434,0.0,Sleeping,-0.0262259341339413,-0.0477154451824128,1.0407800349448595,0.0059989448269149,0.0022871064319203,-0.0155172033889834,0.19465987489892,67.10065412020896,0.0054725359294569
57,36.43136418403243,97.51997164916526,0.0,Sleeping,0.0206040973923715,-0.003520164319812,0.9884831388625914,0.008370840735515,0.016980998120531,-0.0132642966944155,0.2724898077568435,73.46670693822304,0.0889234293582578
49,36.34650451316927,97.08863051657376,0.0,Sleeping,0.0350544857319585,-0.0406694902579414,0.9888111301890632,0.0013390404845644,0.0160694788648162,-0.0135187393990624,0.2934862683770022,75.74226757384942,0.0953393470475236
58,36.35205440251416,95.01307556296716,0.0,Sleeping,0.0201208219230905,0.0048170217334229,0.9590677148402886,-0.0073990767926597,-0.0143152793993468,0.0089086561153572,0.1245070188418357,81.38617751095433,0.0463827226962704
57,36.155284883634856,98.0796183913818,0.0,Sleeping,0.0339509469038711,0.0453477134820308,1.0102346149819723,-0.0024049590912756,-0.0068047918445924,0.0030517463768683,0.1923744659958985,51.243380198685664,0.0484834953189531
55,36.13831033104928,96.41932945264564,0.0,Sleeping,-0.0328244660615164,0.0379638242247448,0.959705343835998,-0.0009176304816193,0.0112772209285228,0.0072294563867066,0.2559969766511815,53.09424112494964,0.0469493925505754
55,36.46498454747281,95.70635042206013,0.0,Sleeping,0.0088592463833198,0.0244813024247048,1.025378361447672,0.0089775329750035,0.0177354505771591,-0.0164565076272855,0.1764752556329099,68.79778659801607,0.0022544071781417
59,36.36881744725288,95.64904128810852,0.0,Sleeping,0.0123447334943604,0.0332635115805346,1.0082602261410096,0.0022323158764281,-0.0137039196388149,0.0118415759635866,0.119352924512346,62.996385384647375,0.0776659513658173
50,36.33804353028581,95.44604306629634,0.0,Sleeping,-0.0427777419014911,-0.0364824432945012,0.9724598141222018,0.0062923398428685,0.0034741686091312,0.0055957771904672,0.154041127255243,54.33858193082139,0.0778494203568865
56,36.16332957517976,97.49587609163238,0.0,Sleeping,-0.0471888042666636,-0.0048191035276062,0.9811920491572086,0.0181316172608112,-0.0113037484599363,0.016671374385685,0.2177228008873939,74.0641934228525,0.0707577723024951
52,36.02964737171416,96.89933819796045,0.0,Sleeping,-0.0174581721667822,-0.038514254863622,0.9758080678782728,-0.0142735046163879,-0.0124223240103959,0.0091255444329245,0.2417787193018642,82.64311978007251,0.0622521491620867
59,36.47094023489049,98.577963699843,0.0,Sleeping,0.0072403725020728,-0.0258441445559271,1.0022122479096651,-0.0029290241880468,-0.0107840395899036,-0.0061717209431941,0.2106877887153618,59.508056408253296,0.0637100071700884
58,36.07244960005245,97.18941003143588,0.0,Sleeping,-0.0336929372226886,-0.0137450457757118,0.9795217774002648,-0.0197730533261965,-0.0033687832880213,0.0007462981109623,0.1498587524103338,52.17897422905266,0.0720324627238985
49,36.24162815617733,96.87800700033182,0.0,Sleeping,-0.0495959057230067,-0.0106829361703515,0.9704863715616258,-0.0073445026079392,-0.0097054701180962,0.0081755681510912,0.2645002788783033,50.34132045489562,0.0237273763617242
55,36.07038865623825,95.10755047048814,0.0,Sleeping,0.0435459055072507,-0.0325904139216576,1.0461048436668126,0.0067274234093732,0.0052698906584298,-0.0123732430244205,0.1648602817915298,86.12541215945991,0.0968217146685487
48,36.00034503061739,95.68882940416914,0.0,Sleeping,0.0044686457671534,-0.0307457930028716,1.0375980470405946,-0.0085063125252065,0.017942005078992,-0.0033261106090495,0.2299849386295678,54.98963126714883,0.0341190873401667
47,36.00840649659784,96.99935177150338,0.0,Sleeping,0.0105218006319377,-0.0114397088287773,0.9788194078740072,-0.0061658355750091,0.011978649013138,0.0008158883936989,0.2882885532011219,70.1635781976114,0.0425655861244678
51,36.3481947776798,96.8609051334934,0.0,Sleeping,-0.0147543078735909,0.0081130730925522,1.0020492514719437,0.0125342830639154,0.0054639314496625,0.0055115214549582,0.1412090702672504,86.71768104809263,0.0342261126741139
48,36.214064162081925,98.44769666338856,0.0,Sleeping,-0.0253989242415826,-0.0152991640737216,0.9868496376224702,-0.0186732406056006,-0.0103263164169021,0.0154425828763379,0.1834941982654551,81.97618541600542,0.0927933809901266
49,36.34439960276613,96.1574230953164,0.0,Sleeping,0.0172754830760876,-0.0320520762338155,0.9784613024857356,-0.0188321760776908,0.0042445546244298,-0.0062955304366048,0.250695709686588,62.96095233314318,0.0025992224360929
56,36.193899923023466,96.73034356194653,0.0,Sleeping,-0.0037322402053133,0.0109121425282984,0.9529196466967258,0.0057452967675148,0.0111270904349263,-0.0103417164316724,0.1035609641358625,70.9240942144304,0.0722020589690159
48,36.35167927416966,97.3215161420824,0.0,Sleeping,-0.0191765850586711,0.0355230726767598,0.9752726896478628,0.0094135734421533,-0.0058538652797789,0.0100180625103826,0.128643883627634,62.43205727339186,0.0296414292429866
51,36.3648751875986,96.93888532947676,0.0,Sleeping,-0.0026075693834946,0.0381329187412119,1.0141668030935886,-0.0091700025967781,-0.015250297397232,0.008190346816362,0.1056629387723446,74.21010743195978,0.0748809271307685
53,36.372597148944266,95.34982802611536,0.0,Sleeping,-0.0338166241975169,-0.0180804672904757,0.9662782017287588,0.0125605656925016,-0.0101281062508851,0.0171805258379466,0.1991782254347796,63.07022363789838,0.0993973498716485
55,36.17190073230467,97.86687569665312,0.0,Sleeping,0.0130274847688769,0.0059210745200384,1.0076907220349125,-0.0059780949045077,0.0076407848576891,0.0127815443635889,0.1603312813088556,61.76653038012574,0.0798938136171385
55,36.34293131158815,97.25992928436114,0.0,Sleeping,0.0322681197862772,-0.027995948655254,0.9904077528821762,-0.0057670158417286,-0.0026564346845681,-0.0167106348303789,0.2590781335458448,79.24726260609448,0.0559625990397692
47,36.16315575030387,97.00699287063829,0.0,Sleeping,-3.954869089516089e-06,0.0064146306859852,0.9855325736071756,0.0086382094434075,-0.0131503223294864,-0.0164234606120325,0.1884019659963375,70.49050697397823,0.0075485890336219
47,36.36843987294977,97.04698056588062,0.0,Sleeping,0.0281255555001479,0.0044258383013559,0.9547696391337048,-0.0168380751651653,0.0157617810920933,0.0187370177884685,0.1471901629007054,68.07511677386657,0.0948166985021079
57,36.20948037219865,95.58742311482966,0.0,Sleeping,0.0348358967712761,-0.0077491836184642,1.0050488981541097,-0.0065311429087728,0.0178967275889869,0.0070125424853305,0.1777567596201195,83.75700909607777,0.0434713611627994
58,36.23503265100621,95.33706968864747,0.0,Sleeping,-0.0323411028733185,0.0198882440020037,0.9949695474932344,-0.0004122668350473,-0.0119356982554593,-0.0095097899950224,0.2678862673411351,59.85957727087818,0.0613719789019043
49,36.15232031429035,98.00810815895044,0.0,Sleeping,-0.0105496689091316,-0.0493261783278633,1.0255427105745745,-0.0101791263503741,0.0092114576543572,-0.0105272594411801,0.2965631337495403,70.26175864367639,0.0920841332804034
47,36.06598294416417,96.08149088618477,0.0,Sleeping,-0.0177505067957346,0.0297807642539235,0.9750285229620737,0.0179599514465111,-0.0170955824519774,9.39800672659849e-05,0.2951448424182639,82.62115323825617,0.0671478627428486
59,36.496278872858746,96.45942122714744,0.0,Sleeping,0.0403731398852555,0.006617699713664,1.031528603327892,0.0030890014680767,0.0054626550995722,0.0154877641717933,0.2906735018753096,71.87664069226345,0.0988795977515061
46,36.22039215822529,97.3790574781783,0.0,Sleeping,0.030357582032678,-0.0042968861229982,0.972277003733857,0.014825094843223,0.0170992616697417,-0.0149031675492713,0.2421111283195147,58.2744451605906,0.0608145723719263
52,36.34114789453938,96.80250615386748,0.0,Sleeping,-0.0010406797610722,0.0096649549165542,0.9909809220083268,-0.0078979543272155,0.0034888949374066,-0.0124784064388184,0.105957307268821,64.50722983480003,0.0976943692253553
49,36.06795660743082,98.8536380488496,0.0,Sleeping,0.0416484614867361,0.0444153238372446,1.0327014486659556,0.0184293121845325,0.0039280152779502,-0.0123633703210663,0.2104104507118805,51.072055914045336,0.0936259278916255
54,36.19805104085128,98.44482526349069,0.0,Sleeping,-0.034370247275904,-0.0213252159144314,0.9504729563156052,0.0113378627738668,-0.016143529562585,0.0122912620529731,0.1755216730457093,69.95494893937175,0.000381969572372
54,36.45434263901562,97.16607779894257,0.0,Sleeping,-0.0375576035790421,-0.0324644205578588,1.025082826182653,0.0146471059480721,0.0199090003044806,0.0089781334392174,0.2473146617017497,74.56096120920529,0.0912441356947452
50,36.48094976286024,96.13909177200196,0.0,Sleeping,0.0287276544484858,-0.0144569161452111,1.0053021217549174,-0.017218119655152,0.0082091948766293,0.0063751631423392,0.17321165628471,80.63801637381262,0.0612115489825483
58,36.45732638306904,98.23528850889004,0.0,Sleeping,-0.0029139908463436,-0.0268122970964661,1.0440415141948471,0.0151097241628461,0.0145162615347021,-0.0004501548965466,0.2301081518794295,56.41158885650056,0.0347563311574927
55,36.118306607344174,96.3343720659998,0.0,Sleeping,0.0236670143694974,0.0075824365509317,0.9513846804086908,0.0163233357811058,-0.0135058123550519,-0.0080770784731083,0.287615719747622,66.20349246946444,0.0274479467091368
45,36.13647340393115,97.44260088691178,0.0,Sleeping,-0.0276925303456196,0.0425426519556641,0.967922138289677,-0.0097947663172867,-0.0180875187476271,-0.0066388931191854,0.2145697824067836,63.02335025308807,0.0701567020492577
57,36.27328908232431,95.40746356574776,0.0,Sleeping,0.047440194855662,0.0216239861065275,0.9879521778878178,0.0009944465023668,-0.0175565678910857,-7.58940985005202e-05,0.1603054326309925,84.16937760347916,0.0379528319741759
49,36.37473099153297,95.19715456205049,0.0,Sleeping,-0.044220289452439,-0.0384899672177161,1.013513594999937,0.0063474553272189,0.008701358818234,-0.0092353439768398,0.2954939612565272,78.72680238584047,0.0452900851591174
49,36.21529083374544,98.46225929483738,0.0,Sleeping,0.0143895885777394,-0.0190818788878728,0.993473347098297,0.0142923392167815,0.0094743968395096,0.0166217627095401,0.198540027963137,74.48893864067566,0.0060088896204307
56,36.27150515984377,98.72722186192496,0.0,Sleeping,0.0177034780295437,0.0233907006531857,0.9756540933756168,0.0129458061692748,-0.0198541441277078,-0.0047771187797205,0.2432105837365877,59.52053309293042,0.001644493056727
45,36.0295832314629,95.68750934436854,0.0,Sleeping,0.0119646554961622,0.0001351476775584,1.0100677109538352,-0.002103911187886,-0.0016544173360271,0.0103356064650069,0.1948933382358046,57.62022708966881,0.0673972744993803
50,36.31890200154171,98.0307086642718,0.0,Sleeping,-0.0244495216701099,-0.033930808026925,0.9715756364220166,-0.008715532960038,-0.0174720844441741,0.0175490528932955,0.1815348198289328,65.8085576457531,0.0460318623605205
50,36.13883109819393,97.66092349447425,0.0,Sleeping,0.0068625359932656,0.0292768025506898,0.9734883920437152,0.0065937374695343,-0.0030205235817612,-0.0134669397484488,0.1770297194358944,89.53615068576971,0.071066646102889
55,36.20509636525274,97.00739603102724,0.0,Sleeping,-0.0238386475530164,-0.0064959369841147,1.009459315672244,-0.0156438146724006,0.0092356322508366,-0.0060665609065409,0.2958923837623587,59.341506387030414,0.063783920689493
51,36.25399517089738,95.3984959530668,0.0,Sleeping,-0.0114535728423329,0.0042911567591588,0.97885069070647,0.0033735869961023,-0.0021089425894558,0.0096572302692044,0.1137250675993179,62.94518322527719,0.0755381046955375
50,36.28932968084025,96.96942794800262,0.0,Sleeping,0.0143515902697202,0.0482387629246636,0.9521254953312792,0.0118978525608392,-0.0100161068353072,0.0115245632707922,0.2542880002016963,74.27850157948905,0.0511569191732095
53,36.09585580980012,96.76908657178836,0.0,Sleeping,-0.0369811107175344,-0.0481771526358517,0.9886913175196342,-0.0195125298577624,0.0147977663448956,-0.0096387367265887,0.1681570284190024,65.20161609793597,0.0417812812881687
47,36.49294351983435,96.4822636341934,0.0,Sleeping,0.0347553839039334,0.0041842804584936,1.0008324698007471,0.0096339212659393,-0.0150168721828238,0.0063474864584393,0.185958195944827,82.00252413716876,0.005112961125438
58,36.47051857045041,96.87677307724591,0.0,Sleeping,0.0218253016607428,0.0444143136972775,1.0428595054379046,0.0070111811404977,-0.0092429552539502,-0.0189025697877138,0.2606037747964759,84.6369974670008,0.0772389988774421
55,36.07152500666963,98.38234158715828,0.0,Sleeping,-0.0318895005768402,0.0367683674150546,1.045534370529709,0.0198746538221527,-0.0078089548590339,-0.0066152623419627,0.2689791197072608,70.23608339279285,0.0028043068321195
50,36.021182025666754,97.6100903239167,0.0,Sleeping,-0.0019386863583811,-0.0394572253479114,1.0153731340142744,-0.0066330642215204,0.0128087157620891,0.0139965380823762,0.1125824235131776,85.5463172690042,0.0051940738280347
52,36.29046849016655,95.76888779604,0.0,Sleeping,0.0252886467882768,0.0112669690853537,0.9705926738373576,-0.0190381691799236,-0.0122493907892093,-0.0122557640417277,0.1512765643434029,76.08923810048105,0.0368948140501666
46,36.45969058614654,97.64263545755055,0.0,Sleeping,-0.0311089230251748,0.0259861591184186,0.9699352098377796,-0.0062202588422934,0.0101460061305327,0.0001123023899902,0.1026449463868601,55.98391273102925,0.0627770093410307
47,36.4085149948891,98.89455641677344,0.0,Sleeping,-0.0130031905545938,-0.0075353300212223,0.9935054171966852,-0.0052223261626936,-0.0128403861426873,-0.0149631561292133,0.2137138444578064,72.59453796746864,0.0304168754647401
49,36.47945837402855,96.72639528348076,0.0,Sleeping,0.0039217827302145,0.0355513868482168,0.998962045138533,-0.0035514352457451,-0.0014177316031273,0.0059866017928022,0.1066357677836722,87.21554337243356,0.0611850125800074
57,36.291182345608114,97.71567316409484,0.0,Sleeping,0.0495979153894503,0.0068277110676654,1.0450451126760003,0.0198737939117556,0.0194995286216531,-0.0155661447231876,0.1917577605934913,72.73203338944995,0.010225978515357
54,36.472438078668965,95.05137863975088,0.0,Sleeping,0.0345944524107025,-0.0268881030200962,1.0495452349988563,0.0142911065529442,0.0182881701544921,0.0154790626737558,0.2547853357569252,80.91864335595055,0.086620534939438
48,36.04627799469732,96.14230809688962,0.0,Sleeping,-0.0002095950775797,-0.0499817298033623,0.9931020138403278,-0.0191906216800152,0.0019431425396277,-0.0192521762119697,0.2441512586528449,57.77623583076819,0.0103413433846318
59,36.48476164897156,96.67497823224906,0.0,Sleeping,0.0151059941999897,-0.0175569986479071,0.9624569129506052,-0.0183391869063093,-0.0112052490933101,0.0009346579448465,0.2119294185111706,61.67074393834401,0.0946586730608037
51,36.07362676747471,97.92545684825603,0.0,Sleeping,0.0413329757792763,-0.0407081676584972,1.0097780242408785,0.0107902620141755,-0.012922705034428,-0.0096731933585039,0.2805884965925312,83.83853579597469,0.0044536146272726
59,36.27284603511707,98.16973074703051,0.0,Sleeping,0.0311066764301528,0.004216888994529,1.0150722369408625,-0.0150444055490718,-0.0099863598548665,-0.0131504678200287,0.2285667685509724,84.4404131969001,0.0524855931296544
53,36.07868018307429,96.4490019330348,0.0,Sleeping,0.0449212114607874,-0.027266139025306,0.9986958649787776,-0.0026756350661277,-0.0039770894027824,0.0120031127876393,0.1919410391908392,57.010316194432086,0.0226477265192295
51,36.198915200180856,96.07828180180886,0.0,Sleeping,-0.0233317642025798,0.04185066805258,1.0499586502160638,0.0022565140446252,0.0145907411932244,0.0040144246751051,0.2464701614402874,80.33499640418626,0.0434200232696874
52,36.37514912511645,95.72559455245012,0.0,Sleeping,-0.0302557474309882,0.0123708861935279,1.0130638210627083,0.0102811503644039,0.0070410934321906,-0.0068269584507736,0.2051567819306706,79.97800141181432,0.0859675141381325
54,36.05198752543349,98.50106618549452,0.0,Sleeping,0.0163242748449523,0.0250357962319613,0.9568487029767804,-0.010106806770934,-0.0196903101012153,0.0046016678121561,0.2982467717516995,72.5759494925981,0.0161509948722855
57,36.42740408069906,97.55610375294286,0.0,Sleeping,-0.027408717588327,-0.0282476704897339,1.0404379946920088,0.0063095771803189,0.0021480734309792,0.0005679029889286,0.1957176209259758,67.37154325295111,0.0054548555839409
51,36.31473853228767,98.61463176940252,0.0,Sleeping,-0.0429109841141769,-0.0329197672397182,0.991244570592958,0.0039511883607382,-0.0199823533022836,0.013992168679352,0.1587763660989379,53.376707357048346,0.0377107948287244
55,36.320136732554005,95.98396937270806,0.0,Sleeping,0.0491802594716053,0.0250548718239958,1.0139935426850393,-0.0030697097609379,0.0102858227798422,-0.0180963465513863,0.2790042701002548,63.657705759891726,0.086846254417473
52,36.1893620279924,95.61724254612656,0.0,Sleeping,0.0283865475980211,-0.0347686328993416,1.0161867215531175,0.0131025768901245,-0.0068410361546039,0.0037607477532082,0.1830486919774663,86.51248996172046,0.0304559265045798
48,36.05132937610469,98.50938894722464,0.0,Sleeping,-0.0252781209512052,0.0459574103004768,0.9916130640965272,-0.0195579875486138,-0.0109342547580961,-0.007004515297022,0.1320973738988825,69.53085738026793,0.0804124120648365
46,36.36773105272464,98.46873777906748,0.0,Sleeping,0.0192374099436023,0.0239591217014351,1.0120995174225411,-0.0012614809093961,0.0129469204630901,0.008271949383145,0.297666553073711,50.9988496615769,0.0177770973567381
58,36.09748442783005,97.3200905822693,0.0,Sleeping,0.0184941983904846,0.048141736454299,0.984620224563132,-0.0176966821689905,0.0187763132573856,-0.0050783389869487,0.1531289665114265,69.22572562057188,0.0210136315197364
46,36.41026989185472,98.87336497380682,0.0,Sleeping,0.044047257052344,-0.0192372197434462,1.0016431905494052,-0.0072833582423076,0.0031950402720015,-0.0161280855746942,0.1669228868567438,60.95244914859357,0.0086818252203544
51,36.49580057837248,98.01506888766832,0.0,Sleeping,0.0489326619442754,-0.0432301787713607,0.999604975754272,0.0067368941573233,-0.0046430105884219,0.0158298770793024,0.2813316795673235,55.12444174336678,0.0904023269786332
58,36.37699992408118,95.78076869698218,0.0,Sleeping,-0.0106219883923208,-0.0406425226736726,1.0429156642046953,0.0191152514738916,0.0021570727878835,-0.0193204526591681,0.1737744256536281,61.395918134458974,0.0074224928273115
46,36.226038967076256,98.51197836239248,0.0,Sleeping,0.0085347685128768,0.0454568280467421,1.043054783321442,0.0050671125962418,0.0157892909843411,-0.0044796053947117,0.2450211432650232,65.92096230117333,0.028027606227067
51,36.29015536811565,97.45171027691472,0.0,Sleeping,-0.0009467751651084,0.0270944334448756,1.0046528618733213,-0.0199509180065752,-0.0049108319419673,-0.0008471908720881,0.1173952863106006,71.59516086220219,0.0521357162979963
52,36.30338455352489,97.3139844889094,0.0,Sleeping,0.0413057158811308,-0.0016896814750774,1.0033766368058628,-0.0055624180403165,-0.0078090511342904,0.0176210828685219,0.2711624768763591,85.87960747754002,0.0574030080814655
49,36.25680811890026,96.85516446451588,0.0,Sleeping,0.049703315968558,-0.0300805369105735,0.9517904328137152,-0.004838911715686,-0.0078231427467894,-0.0105548911269629,0.2265574732096689,73.67648681013063,0.0910313431607822
50,36.30710075727441,95.60193600702212,0.0,Sleeping,-0.0310573252416115,0.0129675799653985,0.9831213699983186,-0.0150128027971751,0.0045033444330934,0.0152845117214781,0.1345312043173396,82.29428947997982,0.031625418999519
50,36.14994736862611,98.69150032666704,0.0,Sleeping,-0.0248561412980995,0.0056565603132052,0.9764275997127811,-0.0088607761702208,0.018489629050785,-0.0170925117188742,0.1409203339341264,87.14301768923139,0.067818104864656
52,36.0102443038418,96.92336777781895,0.0,Sleeping,0.0141722303913936,0.0393149483361737,0.9855483463683978,-0.0160993510073435,0.0138583235826972,0.014269872862255,0.1275637090754213,65.9894681505805,0.0290409468659012
57,36.31092894955745,97.73740129477392,0.0,Sleeping,0.0013087727184236,-0.0316012068036315,1.0155473195764635,-0.0155095573749098,0.009971663056481,0.0059266266123429,0.1940018299005383,63.168032187489146,0.0637183071651333
56,36.391013355737336,97.75588653276937,0.0,Sleeping,0.0135700059172972,0.0457573242226383,0.9682612173051564,-0.0184527502413472,-0.018609837801467,-0.0014083767123943,0.2786214896266056,78.04212314038391,0.0932555974056588
59,36.20179949304028,97.377912741569,0.0,Sleeping,0.0141519857419995,0.0055843836366707,0.9692579164887116,-0.0012649898222274,0.0175119694257091,0.0067489452521097,0.2627907025242788,84.61373906276046,0.0755163849995583
45,36.49853643910275,96.38353067142144,0.0,Sleeping,-0.0459768161791677,-0.0466322940913803,1.038284359034526,0.0117804680434919,0.0114016164529628,0.0009466717776563,0.212818980190461,58.30230865476249,0.0123241481933618
51,36.17689416423887,96.02561353067284,0.0,Sleeping,-0.0445206659895029,0.0146491053205706,1.0377607432975997,-0.0019921352190777,-0.0063172076996962,0.0062484179131599,0.2623566963097719,79.59883588310126,0.0019036478783046
57,36.323565622998814,98.43792744734247,0.0,Sleeping,-0.0256760121511195,-0.0110463193661412,1.0422852191176708,-0.0156123274570442,0.0064097781017973,-0.0146377916092173,0.1264023350201925,78.46099787634336,0.0969413870209428
56,36.34882071713614,97.1707306444112,0.0,Sleeping,0.040449825554443,-0.0400100535925366,0.9700489888878838,-0.0145495163265555,0.0097271016990618,-0.0125067586451354,0.2396159316600075,66.0637563833111,0.0853756858600129
47,36.17024833911664,96.7511480323073,0.0,Sleeping,0.0444676048332076,0.0446931417977509,0.9540983959720234,0.0077109770178547,-0.0069315397224799,0.0097027923047317,0.1650484505151613,80.20622919556185,0.0678462093246569
57,36.362852005820216,96.4745501037194,0.0,Sleeping,0.0184106581732103,0.0129328503533029,1.0310659613596411,-0.0077711268466043,0.0092061930464022,-0.0062662036202747,0.1110467680387666,58.535311480497455,0.0061506472382379
55,36.46136791045779,95.12618710651915,0.0,Sleeping,0.0186365198106946,0.020844672181866,0.9508672145193134,-0.0142796643562311,-0.004853906237093,0.0155079085278773,0.2446659353498493,67.89881245315142,0.0128202136305074
50,36.31138374833208,96.8753127230122,0.0,Sleeping,0.0205515604807794,0.0230951674877623,0.9928182814284278,-0.0036246709815994,0.0122330712208833,-0.0153291415021696,0.208786259551833,74.0379948400839,0.0447314373073415
49,36.26312539352327,98.87269103450342,0.0,Sleeping,0.0480420824531807,-0.0166751933333575,0.9536759503316594,0.0055110166622727,0.0109240426379443,0.0129124537556007,0.2296870539423523,85.82547321180533,0.0359906103779599
45,36.44181508165699,98.95679373112858,0.0,Sleeping,0.0215570456632963,0.0188989201211393,0.9577779286750228,-0.0129459937037298,0.01566475763548,-0.0009430525807938,0.2432187767739582,63.64979413553118,0.0965948614405375
46,36.10055691420244,98.10954937200324,0.0,Sleeping,-0.018814504908783,0.007495423277449,1.047780298418363,-0.0003744382251196,0.0124583193328006,0.0020703661830868,0.2718321419461529,59.27664044126496,0.087314545856779
54,36.012392565095176,97.90026228433884,0.0,Sleeping,0.0019140669438578,-0.0045290088963469,0.9951262591319816,-0.007874675466248,-0.0043970186821532,0.0034777891702584,0.2430373001165341,71.74050420979268,0.0922021736606873
55,36.183925222120166,95.0020424188242,0.0,Sleeping,0.005004296960797,-0.0049962033263499,0.9746323719058008,-0.0139782319877227,0.008177591940035,0.0061591439032022,0.1843820036859123,64.01605319767128,0.0391704027733882
45,36.15586526907765,97.91167306224314,0.0,Sleeping,0.0225276993131562,0.0328479299639795,0.9682884416693308,0.0163519022183706,0.0184647504755385,0.004911640002923,0.1830445877764846,85.77478168340681,0.0536815013366515
56,36.45644892715456,97.42809043857352,0.0,Sleeping,-0.0376561933472519,0.0417293034323608,1.041765002584976,0.0111669184805446,-0.0064353320530795,0.0119059095905342,0.1249853380778601,87.15374333872913,0.0087783110697626
56,36.02456259817684,95.75707248960217,0.0,Sleeping,-0.0353425510728103,-0.0246324065023185,1.028699268520192,0.0147240378365428,-0.0010296971180638,0.0196853881038274,0.1027285695467965,75.66808822841436,0.0463710867482338
52,36.38245258039628,96.29511450525868,0.0,Sleeping,-0.0213344035805593,0.0226050603433767,1.013318746034432,-0.0168665962928117,0.0148607984401279,-0.0073827007885358,0.2313218055410329,73.90928857669851,0.0803190125836274
55,36.47181909882293,97.99854052487524,0.0,Sleeping,0.042896525727727,0.0137646877203381,0.9917038217814438,-0.0084544118863239,-0.0174353485021431,0.0187102572038284,0.2202931358844537,61.88625873565999,0.0045981195314702
59,36.06604117571799,97.62099413724285,0.0,Sleeping,0.0475653215712792,0.0273760992929149,0.9989854411242292,-0.0175720450253523,-0.0034368654653831,-0.0008819625111985,0.1130789982643201,74.6102465504628,0.0752746690175062
50,36.218260555120025,98.7533742484824,0.0,Sleeping,0.0364687908576101,-0.0345685910653006,1.0056988777662808,0.0008400964333587,0.0160083830541795,0.0084687347413965,0.1496905656350858,57.02010928650765,0.0324584998757179
47,36.43243935039687,97.770652811496,0.0,Sleeping,-0.0122120779511337,-0.0338181960388382,0.989678364521923,-0.004478660436312,0.0198607367580042,-0.0042351214004395,0.2347088720539312,76.273245654428,0.049781087277606
53,36.35115605224121,98.05122752472992,0.0,Sleeping,0.0173564680537235,0.02156635181823,1.0216126932601204,0.0136789706294584,-0.0123379365681553,0.0064721530345584,0.1391973689473296,58.74911858796944,0.0900457592672761
49,36.03079589206003,98.54834310261272,0.0,Sleeping,-0.0120098644006556,-0.0157158320235162,0.9572380820284766,0.0059856457583376,-0.0093595666292394,-0.0139790981975022,0.2594266212497074,79.90657618659742,0.0801231567672672
56,36.06312099535661,95.62616454773236,0.0,Sleeping,-0.0076256691095429,0.0232191771010851,0.9752481879862926,0.0141552453890629,0.0002220730507198,0.0065080299690305,0.1787850437650441,76.65538223279853,0.0284510152506221
49,36.465807307571175,97.63199259375992,0.0,Sleeping,0.0150351580419469,0.0236542840306824,0.9664018405884,-0.010061944591595,-0.0092416638503632,-0.0177031357858498,0.2443585269863307,69.05434735807657,0.0732271030353002
45,36.06641696867893,95.6668357925416,0.0,Sleeping,0.0047993886834786,0.0212410500663355,1.0236459890906933,-0.0037990699136723,-0.0028862005885405,0.0186600370704384,0.1770046353437305,89.4366793415187,0.0902726593954371
59,36.10110557061594,96.12407574711808,0.0,Sleeping,-0.0472658216494188,0.0075083745375274,0.9712292405052062,-0.0182599446257009,0.0151053057292352,0.018787368373683,0.2505840408326141,67.93398360939631,0.072457510190091
58,36.107925793100456,96.65736432721364,0.0,Sleeping,0.0324519805453973,-0.0208982314359734,1.0218256038729987,-0.0176281562657288,0.0107722348525538,0.0140469418667008,0.1949666103339458,54.642628495903566,0.0436912476746089
51,36.43452322843282,95.98499078199973,0.0,Sleeping,0.0069942827195274,-0.0426541210930868,0.9529058349281424,0.0155885494700836,0.006714226059563,0.0193010306171539,0.1150734960783537,69.03382699815099,0.070335260047691
55,36.03671577547457,96.91352420200565,0.0,Sleeping,-0.010228329705383,0.0064594122004384,1.0086593209472798,-0.0081457280837064,0.0165906911675389,0.0196345395966718,0.2904894519584766,55.954176056507215,0.0166246901712135
52,36.020251006310865,95.06162000558078,0.0,Sleeping,-0.0354537722581363,0.0416959040806023,1.009649517525993,-0.0079653229990193,-0.007035308296708,-0.019771044801357,0.1625768284423509,85.44121254614191,0.0765712506199902
58,36.11561055247297,96.6098997336779,0.0,Sleeping,-0.0494317333960944,-0.0054196212040558,0.96751205896537,0.0078250389488912,0.0110557448279903,-0.0025691668815643,0.2419893416693156,84.62408520737709,0.0657039448972695
52,36.38184157468727,97.08180131943476,0.0,Sleeping,0.0334792735661766,0.0311005572119087,0.9709675793013698,0.001358388843295,-0.0014163523969213,-0.0178343582245374,0.1165452918959623,73.47653273713289,0.0588967459329776
47,36.13822588049369,95.49360481313272,0.0,Sleeping,0.0186318541238554,-0.0233794319240763,1.0356030355694108,-0.0189772745261866,-0.017046024590411,0.0174439076889825,0.2353157714401304,50.49883100530803,0.0221231051904482
46,36.36956281198363,98.80952286099529,0.0,Sleeping,0.0387406043005092,-0.0458547032306765,0.9787392040033522,0.0019817991230961,0.0027294866839987,0.0030825513643157,0.2332566733726826,64.03274739940241,0.0600396593356602
54,36.45625070557252,96.80681563462656,0.0,Sleeping,0.0176176006606537,0.0024458035522934,1.0302517396948792,-0.0162504465235363,0.0043660265108186,-0.0127324155036802,0.1757299610085504,80.76837356716777,0.0625025721481796
55,36.33446231407088,98.74910026384266,0.0,Sleeping,-0.0287674020960648,-0.02454941607643,0.9543123029724584,-0.0127153014917024,0.0145080991861352,0.0099046396303493,0.1312795990559733,82.31182257919036,0.0666577319465368
48,36.47926559332314,98.77526233537932,0.0,Sleeping,-0.037026660224173,-0.0202661101934688,0.9769029822628864,0.011767201551152,-0.0162859854923476,0.0144782202389232,0.1016468893680317,83.89409466738994,0.0602976792742811
55,36.42362700474997,96.33077150645305,0.0,Sleeping,0.0437933503945618,0.0204314598965489,0.9573386045741852,0.0191716998659754,-0.0115905801086723,0.0151552372607603,0.1414905297670567,60.36002572469587,0.0333565356010732
56,36.048662564619896,96.7523705649578,0.0,Sleeping,-0.0048470258360106,0.0370527407956623,0.9574012141765011,-0.0009759481105883,0.0083026174469307,-0.0182709291540926,0.1635362155672683,87.58978650868812,0.0138198708828368
45,36.03177313359839,96.61077342928024,0.0,Sleeping,-0.0009752342543002,-0.0376880786488466,1.010741174970513,-0.0041984878757982,-0.013757438378208,0.0158696270782693,0.2166083264449791,79.80181527093004,0.0207108752714443
51,36.46156372980103,95.22959857072532,0.0,Sleeping,-0.016600632957785,-0.0304721045308263,0.9575241290699144,-0.0172593970288339,-0.0107757569183798,-0.0156940647463224,0.1502327021896405,80.1754847956505,0.0021584425643632
49,36.479933447297874,97.1503374029545,0.0,Sleeping,-0.0175324016620948,0.0124982488196211,0.9759985970950188,-0.0107948415858502,-0.0090555138665828,-0.0077199394249401,0.2402859579752978,81.24696015188906,0.0661829861573573
49,36.20402624111211,96.15991735935624,0.0,Sleeping,0.0238438457067129,-0.043982009379579,1.0395984002878769,0.0003992041677313,0.0018964540020117,0.019160936431266,0.205037166621149,82.6518960227064,0.0775836191697908
48,36.05458701942064,95.04376719071796,0.0,Sleeping,-0.0400901395155507,-0.0103838410850743,1.0013580056783784,-0.0143971529393742,-0.0016158877719729,-0.0116753957356788,0.2124175560152378,84.7387788993909,0.0547482764450173
54,36.36335834829461,96.81992117395576,0.0,Sleeping,-0.0497479655549644,-0.0131155996548498,0.9936972489984128,-0.0085830554792842,-0.003689767038666,-0.0173467027630961,0.1367039261638442,51.37844575156468,0.0593028060029739
47,36.147479959663926,96.93172163752264,0.0,Sleeping,0.0116532169916177,0.027089957788431,1.03303969658945,0.0128250665556216,-0.006260776163888,0.0026519074338754,0.1708215336557577,89.35405115993218,0.0256901916914802
45,36.29467063970812,97.46682923498196,0.0,Sleeping,-0.0288734816349252,-0.0324188577699054,0.9571393112348544,-0.0096385355481229,-0.0188420066307927,0.0193349604615444,0.2238406913484262,78.91181984888505,0.0243607997256054
58,36.363640597418495,97.51159306623217,0.0,Sleeping,0.0315393777154516,0.0077572067570876,0.956858445110256,8.026108066484794e-05,-0.0178474552502581,0.0108410365854381,0.255466364381587,51.16455179706981,0.0810526476325521
54,36.39079457174921,98.74429753690494,0.0,Sleeping,-0.0104002213513778,0.0421842438686731,0.9933197912649848,0.0016758113776503,-0.0161768266167022,0.0040797246867047,0.1895280608037404,53.88476025683719,0.0227228981358741
48,36.26692682533903,95.98774861010963,0.0,Sleeping,0.0196166441708144,-0.0250761744624931,1.0446697096624489,0.0162224504466449,0.0101104395867033,-0.0079137200127948,0.1112819422927782,51.40377076689504,0.0866920580246726
54,36.13324859486974,97.46882845346576,0.0,Sleeping,-0.0418446813163452,0.0068032984718732,0.9686018617817892,0.0090104489813393,0.0021736496623685,0.0095658427947145,0.2022498233119612,63.57506726728377,0.0044280218916872
50,36.14141036581803,96.91930525424512,0.0,Sleeping,-0.0476884063057,-0.0081951673053055,1.0430978897622931,0.0074988398306266,-0.0093529952159875,-0.016378587165207,0.1896117083510434,77.83369159913767,0.0635765643464066
59,36.151044679941165,98.05666223087692,0.0,Sleeping,0.0406379871286955,0.0123850828553051,1.036543567337517,-0.0079222781252627,-0.0046160883242174,-0.0066301501983124,0.2579778923088954,66.20625454221414,0.0532952320329055
47,36.14622416018416,96.0575108833687,0.0,Sleeping,-0.0072221023447446,-0.0072792473583887,0.9983332506664347,-0.0013095777775448,0.0012275962176326,0.0145114682645869,0.2188955363957102,56.023518462723175,0.0656179599759001
45,36.14123396621523,96.71902400490934,0.0,Sleeping,0.0276485358103797,-0.0111585199656737,1.012308248847,-0.0137806186119787,-0.0058450320896253,0.0177310553962837,0.2447683123955251,85.37338674799682,0.0643412788560769
53,36.21743248873219,97.31741411165312,0.0,Sleeping,0.0316904968764691,-0.0044084316514157,0.9633580651787164,-0.0091688742845397,0.0150434291992013,-0.019637860826128,0.117079413722114,54.73526156836823,0.0462792755061246
53,36.23497680676781,95.37226720378511,0.0,Sleeping,0.034899298323119,-0.0316961896546475,0.9779022659699907,-0.0191660702963934,-0.0046579744307881,-0.0161255143562563,0.1137515760816183,81.43984570865055,0.0607546636208531
53,36.49056183570545,98.99873957022076,0.0,Sleeping,0.0478376951607089,0.0362494852832575,0.986547789132195,0.013850243686688,-0.0146439400654743,0.0083729280292596,0.1451946710530982,62.49296924508532,0.0198849345890748
45,36.02182418261965,95.27306659984848,0.0,Sleeping,-0.0353087519058165,0.0314509976595184,1.0446140570123714,-0.0123664266374083,-0.0191689974743634,0.0050689059520977,0.2600972863856968,65.51021103536502,0.0327079960352912
59,36.19353699740452,96.92954109992505,0.0,Sleeping,0.0359879679248128,-0.0183920392511336,1.030760002015022,0.0066548126499909,0.0190377290457261,0.0090456234828036,0.2559750916961432,76.55875649823238,0.0670447292249583
54,36.09293676930256,98.51970582373062,0.0,Sleeping,-0.0465641625367199,0.0363310048380417,0.995301583299674,-0.0066246957228432,-0.0084483127152092,0.0036975106973834,0.2109252290077032,77.26229148920451,0.0966757712145881
45,36.05198474939363,95.48758936327994,0.0,Sleeping,-0.0343226679299573,0.0007415507811645,0.9575918691478462,-0.0161311593699874,0.0056604933932763,0.0113286836724317,0.2440036328975228,63.03849633771155,0.098657963030929
48,36.34126983230404,95.00221734931218,0.0,Sleeping,-0.0277276725109959,0.0005749251004521,1.0217910364346556,-0.0067181877891715,0.001473067293797,0.013502063886873,0.2812121137944791,51.95709406626057,0.0244296841614458
54,36.45505388505215,95.79652388865892,0.0,Sleeping,-0.046694654680802,0.0022842034998558,1.034529922110307,0.0197975400787672,-0.0071755720781847,0.0072095651748309,0.2965115430263495,73.33978053150568,0.0778978566386366
52,36.28833993736001,98.06055731788678,0.0,Sleeping,-0.0475035648334181,-0.0283116544871961,1.005656726220894,-0.0056049569648721,0.0064611497779661,0.0016675844474098,0.1833772872855036,81.345909535873,0.0977939965133089
52,36.11678572219202,96.77861055923124,0.0,Sleeping,-0.016882202680297,0.0141687630483658,1.0018163846091184,-0.0019194031845449,-0.0030160876808843,0.0114688301692409,0.1522977638615308,64.85500896221029,0.0949405156470813
58,36.13339393711858,95.8587158995533,0.0,Sleeping,0.0477048961944409,-0.0357588776452699,0.9592795874125138,-0.0146773118031894,0.0105073053725559,0.0142657725577718,0.289583160264322,80.3146540429792,0.0528173476089679
58,36.19868247317761,95.7030227667648,0.0,Sleeping,0.009624666015426,-0.0310593820250674,0.9526003380711352,-0.0080143509736256,-0.0101936063966524,0.0108123528287985,0.2222084271512073,76.3394386047433,0.0009393305804106
50,36.29037285323031,95.97160223193691,0.0,Sleeping,-0.0362245371868019,-0.0243093773276861,1.015695246812444,0.0066763593702555,-0.0136370828641527,-0.0179149848466843,0.2161449341969392,52.12025214944964,0.0780570224088181
53,36.01508304322906,95.634584111975,0.0,Sleeping,-0.0428516053495855,0.0295841267283083,0.9814169186370798,0.011313013015991,0.0139697107555317,0.0193080202835138,0.2224290428273089,88.83596085166394,0.0852722679534035
46,36.008776464734105,97.18802724957771,0.0,Sleeping,0.000634802560017,0.0464769835392483,0.9644169390979423,-0.0184392007403145,0.0030416249357452,-0.005493406269918,0.1997529474157935,77.17405697985706,0.0353166039934498
48,36.0781410105084,96.73391296758344,0.0,Sleeping,-0.0232743073595566,-0.017868750944451,1.007954570819417,-0.0075656312186115,0.0098459044685972,-0.0190798245537775,0.226673291847065,81.92791012485455,0.0990443794254906
55,36.17759689860345,96.04311419160082,0.0,Sleeping,0.0353949792086893,-0.0018384010099695,0.9518111582541569,0.0132085868662161,0.0138410085218147,-0.00582899589799,0.2125452189781882,77.32025133447777,0.0157007717999948
51,36.04462518389391,95.97197944672922,0.0,Sleeping,0.0459681381249455,-0.0151067023601176,0.9676341107124382,0.0140910770969827,-0.0132317071572942,0.0172411059079013,0.2069334484719189,68.85947748244448,0.0670651930473292
52,36.13197014365039,98.69726854938683,0.0,Sleeping,0.0014058449876132,0.0079095113138777,0.9872169709783882,-0.0131517770311141,0.010749922596443,0.0140367691610653,0.1654932472985127,73.4141320924253,0.0469753756736643
51,36.43070775991711,96.51653414790344,0.0,Sleeping,0.005837539361714,-0.02429905292203,0.9681562087593956,0.0148111691984891,0.0018929559366176,0.0173764950490999,0.1674133528459243,83.47701539611325,0.0085523756774831
46,36.48972757342977,98.28618309439202,0.0,Sleeping,-0.021021226104938,-0.0337195715032088,0.9675351376163164,0.0126179883553954,0.0164620678984661,-0.0034943483574878,0.1945310328956841,68.79420112460707,0.0036945794724944
55,36.41369216052272,96.23321617963336,0.0,Sleeping,0.0495932643574271,0.0356589263637106,0.9986017606532795,0.0025381431225579,-0.0018580645677119,-0.0127142034087782,0.2669157593981875,55.40971242474284,0.0228969768906179
58,36.172983826555466,97.86897274598034,0.0,Sleeping,-0.0147165770087886,0.0109389783730711,0.9882404921588436,-0.0147900219839859,-0.016195096709917,-0.0173579445458545,0.1306470305501438,80.49285953665178,0.0365399714711942
52,36.12889013767575,98.563876482839,0.0,Sleeping,-0.006756069072758,0.0350395118753385,0.975790647978594,0.014997821106004,0.0138722157445381,-0.002878043848168,0.1637678492099286,68.32335341032618,0.0388217444466677
57,36.46249912848291,97.71204002171078,0.0,Sleeping,-0.0194301457521857,0.02271727860457,1.0262790178404166,0.0049725648297774,0.0120328007820911,0.0112977340677663,0.1814186857532496,79.14545667651734,0.0024266240937148
54,36.2866284147285,96.83234795926374,0.0,Sleeping,-0.0015657494293382,-0.0293018566689278,1.009514321107488,-0.0131366815618459,0.0035375437432458,-0.0021404659925885,0.1065766317006503,67.72658887347325,0.052309550856713
55,36.26941136964157,97.04737795471829,0.0,Sleeping,0.0150576321900953,-0.0450151128232187,1.0388880523860222,-0.012499958343043,-0.0134807290789881,0.0052844035021064,0.1116821083230635,66.66267856707266,0.0473849503524072
59,36.364316162646894,96.65057649818496,0.0,Sleeping,0.0242876487402902,0.034717454762153,0.9812913532494556,0.0114273014851323,-0.0057284819718905,-0.006240368891721,0.2025439954677773,57.21135899805121,0.0244826837313357
48,36.07300463014112,98.32549250875338,0.0,Sleeping,0.0228933451932072,-0.0216230086802515,1.004251001203736,-0.0050830314773462,0.0111921971451354,-0.0001411610297795,0.2272511007361115,72.2377589619602,0.0080539041471377
56,36.38474544596312,96.13885426683004,0.0,Sleeping,-0.0479337043453747,-0.0346692301226966,0.97476027772004,-0.0179281382474229,0.0090151900841976,-0.007369549147684,0.2693345808012456,60.6652091601095,0.0997304646769817
56,36.16901216894527,96.74882329218534,0.0,Sleeping,-0.0243255882179269,0.0275077720458876,1.0261089487486614,0.0030359433578508,0.0010040972355617,0.0186081255405104,0.1362849698222693,78.80752743641202,0.0422273487382471
50,36.21243721017724,95.70520583328464,0.0,Sleeping,-0.0388952140193769,0.0181150940521464,1.0030914599202203,0.0163334424166139,-0.0059782660013525,0.0115129320829765,0.1582681427612554,66.54571300587907,0.0679124499456338
57,36.34739551417383,95.7516353427634,0.0,Sleeping,-0.0387015345987149,0.0264616285490417,1.0005758366735935,-0.0022865662838396,-0.0081834381701313,0.0120175504289281,0.1910702744869291,67.38413439755182,0.0493726228349223
51,36.29307833549914,97.82769592030908,0.0,Sleeping,0.010664501203031,0.0310945878050228,1.0323663197473008,0.0078941012399422,-0.0099715618272344,0.0090678183441748,0.2994445205492999,64.71743816017829,0.0903496138157314
51,36.3887821548245,95.23569343661543,0.0,Sleeping,0.0366441689969328,0.0499077036005552,1.021501603869502,0.0127886767426647,-0.0164215576318246,0.0044863897111814,0.2384331165750831,82.427053092983,0.0277228291481878
57,36.1147205509174,97.62280527313656,0.0,Sleeping,0.0406917608108331,0.0280692348729082,1.0428201424127288,-0.0065543395789772,0.015094384188199,-0.0069641379457247,0.2110586960735427,84.96830034316486,0.0739610546455705
56,36.4973707216673,98.17291911246424,0.0,Sleeping,0.0276154514238212,-0.015648182444881,0.9593820998467996,0.0051891269445727,-0.001974991261138,-0.0008887491676541,0.1010208858034739,67.71303770216437,0.0380960761261284
56,36.08406088379962,95.11505591475492,0.0,Sleeping,0.0494031667172769,0.0200050665832161,0.979796540769173,-0.0070570741712217,-0.0026186655499129,-0.0008453986451425,0.1724272089324642,62.60163246129558,0.0326392327585716
58,36.19554700969633,95.13124927327202,0.0,Sleeping,0.0488303669027676,-0.0239382374364573,0.9502603884285428,-0.0178676483644585,-0.0139478600602347,-0.0180593088443748,0.2987989508082504,61.69129628954322,0.0207428558114407
53,36.34789001363698,98.94720185453586,0.0,Sleeping,0.043947528340648,-0.0446744474597599,0.9505211180464896,0.0085323049830072,-0.0185841558517294,0.0077201673914613,0.2571693318512521,61.07057553293996,0.0718446025226908
54,36.27747489054869,96.4433595941844,0.0,Sleeping,0.0290750504649895,0.0266200516991362,1.0209476063022578,-0.0147489951445067,0.0146711732509535,-0.0178007109952565,0.264853249085079,50.18809969593365,0.0944307637588093
54,36.41040134507771,95.48289036652776,0.0,Sleeping,-0.0228902131512885,-0.0327104961062538,1.0346535315340308,-0.0038339136069742,0.0098228404641182,0.0157554522567119,0.1575874704930011,67.31073701339184,0.0318478334315173
50,36.267080274598726,95.68533780550618,0.0,Sleeping,0.0145500958451524,-0.028764175934539,1.0354585181320088,-0.0190613147984662,0.0194154809034688,0.0059890368464883,0.1865848559383846,54.57229049217487,0.0602459843125361
58,36.17432312885456,98.70747044068818,0.0,Sleeping,0.0142459138301467,-0.0301503520328071,1.0060982481619385,-0.0033664139634359,-0.0134929825975203,0.0144513290684,0.2263382121990076,72.032940363627,0.022466454536183
53,36.455207780650014,96.96863274983994,0.0,Sleeping,0.0414357391646409,-0.0399136524702153,1.0088928821600098,0.0021736798561642,-0.0108585328305953,-0.0159562085888072,0.1970099407625714,58.06723584382265,0.049598096707498
45,36.27912413585751,98.45399256879232,0.0,Sleeping,0.0053700761523512,-0.0024635415231371,1.0177991494502014,0.001286321636253,0.0013059108335197,0.0009214011602163,0.1898108806466972,76.3055465457502,0.0234500631406056
55,36.4530717933208,97.8726386520741,0.0,Sleeping,0.0151167274168867,-0.0163075683870762,0.989445886427209,-0.0155889974103956,0.0019151227924758,0.0018525079290287,0.1470824863470623,83.26907451086689,0.036886640842853
55,36.09038911784384,97.99152129413426,0.0,Sleeping,-0.0429118778634726,-0.0139350881186136,1.048711982599932,0.0134920612675187,-0.012066104365494,-0.0082982783514956,0.1599802883425649,53.36811063912804,0.0429629867097674
53,36.1888029713842,95.51239417651156,0.0,Sleeping,-0.0125263819275891,-0.0120054577914452,1.0146716779649976,0.0039666885673042,-0.0154274981799432,0.0191065399093538,0.2194347950807449,56.67822383907915,0.0222560728867388
56,36.08307132948195,98.0145933182584,0.0,Sleeping,0.0059894774836007,0.045837082719742,0.9701541842052444,-0.0107439066412267,0.0062500548872653,0.0051974534801874,0.2311662919248446,72.41261432875291,0.0708722658997209
